seconds_elapsed,accelerometer_z,accelerometer_y,accelerometer_x,gravity_z,gravity_y,gravity_x,gyroscope_z,gyroscope_y,gyroscope_x,orientation_qz,orientation_qy,orientation_qx,orientation_qw,orientation_roll,orientation_pitch,orientation_yaw,magnetometer_z,magnetometer_y,magnetometer_x,compass_magneticBearing,network_type,network_isConnected,network_isInternetReachable,network_isWifiEnabled,network_isConnectionExpensive,network_ssid,network_bssid,network_strength,network_ipAddress,network_frequency,network_cellularGeneration,network_carrier,totalAcceleration_z,totalAcceleration_y,totalAcceleration_x,magnetometerUncalibrated_z,magnetometerUncalibrated_y,magnetometerUncalibrated_x,gyroscopeUncalibrated_z,gyroscopeUncalibrated_y,gyroscopeUncalibrated_x,accelerometerUncalibrated_z,accelerometerUncalibrated_y,accelerometerUncalibrated_x
0.0,-0.5293107135221362,0.1750076436226002,-0.2940359810441309,9.195455865426498,0.6851680580187928,2.486685867082666,-0.568153122715144,-1.0919062442950567,-0.074335937875069,0.9041422734206374,-0.04826770495856181,0.1334416710305959,0.38174304586242547,-0.2899005667582473,-0.024588684575230054,-2.3461980900981207,-41.39083463880751,-19.307084168328178,9.725833694140116,207.1608421572568,,,,,,,,,,,,,8.68770378165775,0.8877950438505245,2.1523717745672912,-124.65458780924479,68.81416939629449,34.23916816711426,-0.5676885013757594,-1.099157606240833,-0.06838491079451024,8.681464497962695,0.8762865597591474,2.1660270749047146
1.0,0.5565114943404691,0.5942024574285806,0.6978704996331774,-0.7861812935583293,-0.5571511890739202,9.328607239723205,0.7535149667522695,-0.7427926932295581,0.2412920785182626,0.7751292336960228,-0.24382437856829897,0.4592029905440856,0.33011432509033045,-1.1048737624470069,0.0805503346277781,-2.289351134884114,-14.2451256275177,-10.051875399947166,-41.29462673187256,106.43002161890772,,,,,,,,,,,,,-0.2087331750605366,0.036766337032549744,10.036548024356955,-99.17475341796874,75.47025321960449,-20.0437508058548,0.7394486026405686,-0.7259277741782216,0.22279999985575977,-0.26732273535294965,-0.0034500007856298576,10.032488384632149
2.0,0.4930023347191951,-2.005729447045893,1.4249222731473399,-2.0077963179233027,1.137170327329716,9.203521934210086,-0.15466299929683752,-0.00433193035608176,0.11558576572760201,0.7088820700551949,-0.1736443825979151,0.5756097260643455,0.3379999308609495,-1.3043367231593412,-0.14624793792609125,-2.36798164657518,-6.775500288009644,-24.8081258893013,-37.699501495361325,124.04984749057868,none,false,false,false,,,,,,,,,-1.5143265387308145,-0.8681220977348002,10.627934348349477,-90.11062850952149,63.01087776184082,-17.805000648498535,-0.154095296443689,-0.007693193986606185,0.11396299297967465,-1.5143265387308145,-0.8681220977348002,10.627934348349477
3.0,0.7057029450275373,-1.1682309850607768,1.3265590690592728,-1.9950416926110144,-0.5094631553286373,9.084967717085734,-0.3576253635224466,0.006923528744236511,0.08367953326680935,0.6428135264628004,-0.3875628411769867,0.5715681650851032,0.2955705547096706,-1.5331921565650712,0.15296637453859221,-2.130232393151463,-13.804500503540039,-14.530500449240208,-40.07175151824951,109.39942699852179,,,,,,,,,,,,,-1.2889084749587691,-1.6772139337983463,10.411023800916011,-96.96487915039063,75.16987800598145,-21.817875747680663,-0.35705784302862253,0.003546691207470847,0.08205514975056491,-1.2889084749587691,-1.6772139337983463,10.411023800916011
4.0,0.2505836934681133,0.3046208027281134,1.2324652401822629,-2.0327661993479964,-1.677007629360893,9.145825999798161,-0.06405162060633302,0.024010249860584736,0.03412612453103066,0.61757892960369,-0.3949879101744973,0.6218526044694503,0.2193295445182536,-1.7075426790973929,0.2185299368298585,-2.204379157264634,-4.831125193163753,-6.872625272572041,-39.841126441955566,100.32129310992337,none,false,false,false,,,,,,,,,-1.7816852324522368,-1.3719208538532257,10.37777574463646,-92.77537872314453,79.27837852478028,-23.98875089645386,-0.06348787423223257,0.02064012411981821,0.03251874789595604,-1.7816852324522368,-1.3719208538532257,10.37777574463646
5.0,0.15239777362508938,0.3840093384727393,1.3017427518705624,-2.1765453968897903,-1.9271254401358933,9.072826772633166,0.17135869989208147,0.058250122210558725,-0.04181347954470445,0.6415594828010786,-0.18130444532426276,0.7267255942420204,0.12092242579870295,-1.705372947277409,0.057628939529917766,-2.701742120308451,1.457250056862831,-8.471625341773033,-30.653626136779785,104.87022337148353,,,,,,,,,,,,,-2.023596634369085,-1.5425763060845952,10.374007937931779,-86.48737762451172,77.67900276184082,-14.799750556945801,0.17192083126043572,0.05487193552521514,-0.04343247578899358,-2.023596634369085,-1.5425763060845952,10.374007937931779
6.0,0.3011444898358747,0.03115624064059161,1.2352526990660266,-1.8263373304815853,-1.1890015289479612,9.244440630370496,0.28857437633715644,-0.007939603115146113,-0.10044715290723166,0.6523843699810552,-0.12619386239363367,0.721476391250012,0.13535215698328673,-1.6751669738806931,-0.030860741933186848,-2.7688049194859525,2.496750096082687,-8.315625290870667,-31.103626251220703,105.94934379913886,none,false,false,false,,,,,,,,,-1.527840672005521,-1.163215893846337,10.500965831303361,-85.4475030517578,77.83725303649902,-15.248625545501708,0.28914752314881526,-0.011314480713024587,-0.10206175784552747,-1.5246956662512292,-1.1575471109473239,10.47919166321848
7.0,0.3007728415218615,-0.6427012537006694,0.7414290456119741,-1.9374252569557417,-0.8359351035318162,9.283645752632973,0.2155727722801932,-0.010424133652987161,-0.05273057027065223,0.6522337977248843,-0.12652907935190152,0.7288567571356745,0.1051909111643044,-1.6941754074379949,0.012120451985646298,-2.808427982991285,2.107500080764294,-14.402250624001026,-34.83337635040283,112.53875982871536,,,,,,,,,,,,,-1.632438074350357,-1.4968425710778683,10.039788465499878,-85.83487838745117,71.74875259399414,-18.978750648498536,0.22759890234024793,-0.013659680942438688,-0.05459424059874579,-1.6361362143318252,-1.4782396742594566,10.02457324112996
8.0,0.2918696601362899,-0.6817295759171248,0.438398560937494,-1.8117081861869961,-0.7366318671288443,9.399089916079651,-0.08106237637930282,-0.002425989846118016,0.011408416443679592,0.6568278729915619,-0.14539321972057223,0.7266652083396912,0.09039062049239874,-1.687394814491272,0.060469654803164304,-2.8011028075218203,-1.4190000545233488,-12.69787550508976,-34.67700141906738,110.47560207637628,none,false,false,false,,,,,,,,,-1.4961236022851045,-1.5027294888745482,9.814166639365402,-89.3655027770996,73.45275283813477,-18.8223756980896,-0.052145833140145044,-0.00252916705277231,0.009686110842258039,-1.4961236022851045,-1.5027294888745482,9.814166639365402
9.0,0.2374168428685516,-0.9225057642161846,0.3906701229698956,-1.5000897240638733,-0.34332985009998085,9.526317100524903,-0.10585458277918325,-0.03969665818690959,0.032997278072456324,0.6610748326778412,-0.15739909064024687,0.7195369225740432,0.10770692979916931,-1.6696970534324647,0.05383545442484319,-2.7603326869010925,-4.000500166416169,-12.388125457465648,-31.49100124359131,111.73137575331502,,,,,,,,,,,,,-1.2557985720104805,-1.2719718374053735,9.91867175904831,-91.94737854003907,73.76512763977051,-15.637125625610352,-0.1052868780818316,-0.04307017306160956,0.031386756896050555,-1.2622260572947561,-1.265391054432839,9.916528968811035
10.0,0.15239896370088774,-0.6713762756547715,1.0084502730186622,-1.6348923503762425,-0.7608914224818202,9.446126191922934,-0.0862234976887703,-0.023333750325255097,0.101628999710083,0.6577447841663172,-0.18013508887131616,0.7188907301071847,0.08505204941450369,-1.6879070135626462,0.11615400127421069,-2.7539613648216323,-2.4603751170635224,-9.617250415980816,-33.807001457214355,105.13152468337037,none,false,false,false,,,,,,,,,-1.4820074939196652,-1.4318718456543318,10.454042609375302,-90.40650283813477,76.53225296020508,-17.954625720977784,-0.08565425302833318,-0.02672174943611026,0.1000174993276596,-1.4820074939196652,-1.4318718456543318,10.454042609375302
11.0,0.5265145493578166,-0.9170088498294353,1.065921205896884,-1.716353189945221,-0.24311911082826554,9.368806533813476,-0.23750428716633834,-0.04652352894966801,0.11951850509435377,0.5510818827152252,-0.1030270295473747,0.6129663902521133,0.0657302501758386,-1.6918205523490906,0.09614353421609849,-2.837996635437012,-0.6352500499784947,-13.781625557765365,-35.44350131988526,112.36700313168306,,,,,,,,,,,,,-1.1884262986794705,-1.1616980751681298,10.445241588177067,-88.57837799072266,72.36862739562989,-19.591875801086427,-0.22222450467767102,-0.05102611425802997,0.11999938176889526,-1.1894400608632714,-1.1598345547448843,10.434253997802735
12.0,0.2611847553703496,-0.11308708975055054,0.8529157899320126,-1.4062961199704338,-1.110882667276789,9.392959136588901,-0.0932141031221588,0.05011943185535988,-0.08384913233763511,0.6677963383057538,-0.19538155811674454,0.7052781891589072,0.07724651913432513,-1.6648809477394702,0.15475782420652845,-2.7419432939267625,-4.229625147581101,-17.881125707626342,-27.269251165390013,121.92556799399418,none,false,false,false,,,,,,,,,-1.1446544726689656,-1.223651531462868,10.245365194245881,-92.17275344848633,68.26875289916993,-11.415000503063203,-0.0751121218316257,0.048991248849779366,-0.0930187511863187,-1.1446544726689656,-1.223651531462868,10.245365194245881
13.0,0.10475073092849925,0.22588487103581428,0.981468213647604,-1.6744908022880554,-1.3679118235525676,9.354160003662109,0.0246030630945575,0.007079901831114993,0.037422917271945993,0.6529588836431504,-0.23846493996679782,0.706984127163887,0.07601528992876411,-1.7091949200630188,0.20694885982433334,-2.670657761096954,16.220625703334807,-18.75975060239434,-9.845250506401062,136.78854250497062,,,,,,,,,,,,,-1.5646708719801194,-1.152537674140554,10.313336622596967,-71.72287780761718,67.39237762451172,6.009000211954117,0.04136980015157473,0.006616336690022213,0.0338957919877502,-1.5692280805110932,-1.1416935492912308,10.33510998249054
14.0,0.1578654420651112,-0.27130135093979973,0.9609485178473679,-1.6390455073001338,-0.8574369003010147,9.458488585902195,0.18105074246921163,0.024234034111815513,0.007788491075729379,0.651539636593239,-0.221405989618278,0.7110039895656062,0.0978033233287872,-1.701764865248811,0.15159107545418116,-2.6715117576075533,2.4307501262426374,-8.557875356674195,-4.769625170230865,145.313030176672,none,false,false,false,,,,,,,,,-1.4807794870553064,-1.1284838754902868,10.41894460659401,-85.5150032043457,77.59200271606446,11.08462555885315,0.18162116124340805,0.020842820636485473,0.006171164642281756,-1.4807794870553064,-1.1284838754902868,10.41894460659401
15.0,0.1978745619673282,-0.09353748571127653,0.9152426954079419,-1.3052059614658356,-0.8069778139516711,9.471479711532593,0.27678210693685446,-0.04718945974794527,-0.145221569406453,0.6548133713006973,-0.2237521380186081,0.7012427371740341,0.12398078985512256,-1.6819915449619294,0.12083986833225936,-2.6314072227478027,-11.879250469207763,-11.657250412106514,-21.24112585067749,122.04740988864893,,,,,,,,,,,,,-1.1069295488670468,-0.900144045529887,10.386276478767394,-99.82275451660156,74.49187812805175,-5.388375236466527,0.2960048231600535,-0.04930668299335359,-0.14731150931946121,-1.1051673758221734,-0.9108163828288417,10.359610873873871
16.0,0.18269397057227643,-0.43738868511190604,0.34963831420549574,-1.475194865582036,-0.8411333091721377,9.497611279581108,0.09482735382522096,0.015172647478261797,1.1844054270203751E-4,0.6499276645112746,-0.21913460420795006,0.7121333344147938,0.11757392956331225,-1.6967249766434773,0.11896220201368232,-2.649822015573483,-4.5513751864433285,-15.78225064277649,-27.074626007080077,119.78618418921627,none,false,false,false,,,,,,,,,-1.292044182362802,-1.2782015336093073,9.846735706516341,-92.49675277709962,70.3676276397705,-11.221125431060791,0.08708012629300356,0.008802750427275897,7.975014857947827E-5,-1.292044182362802,-1.2782015336093073,9.846735706516341
17.0,0.4571593401930295,-0.6097313737869263,0.41569798659766094,-1.6704141354560853,-0.8126426561549306,9.433267383575439,0.07166175880268508,-0.06994301377905204,-0.011316789095016086,0.6489473795890808,-0.21375987954437733,0.7162001597881317,0.0952155701816082,-1.7112519478797912,0.14260509358718992,-2.685263202190399,-2.527125101685524,-8.873625469207763,-24.867751159667968,110.36667592774306,,,,,,,,,,,,,-1.2081980866444584,-1.4309347156933185,9.831129659520517,-90.47100280761718,77.27662826538086,-9.012750368118287,0.07808487884700298,-0.0720403747446835,-0.014455375168472529,-1.2127395673468708,-1.422084060618654,9.848511447906494
18.0,0.3206314226944432,-0.9926684935412863,0.5378196090459824,-1.5225953979819429,-0.6790330178816529,9.51447000690535,-0.1130576727377011,-0.052448761796966045,0.15663972735810694,0.6501926008392783,-0.21613535314213997,0.7163847193998449,0.08431969592165128,-1.7122491668252384,0.16321258438641534,-2.697308659553528,-5.1525001931190495,-8.307750314697623,-36.198376235961916,101.21976572801066,none,false,false,false,,,,,,,,,-1.201489761289136,-1.6713074299269448,10.051807828977996,-93.0993782043457,77.84250305175782,-20.346000690460205,-0.11248725376064235,-0.0558209163551726,0.15502920836247136,-1.201489761289136,-1.6713074299269448,10.051807828977996
19.0,0.008818634555186375,-0.624925032995715,0.6043741398371092,-1.2663676691527415,-0.9747293744568187,9.588940752614842,-0.11555392220251116,0.023751104063372695,0.005114461377482204,0.6593340481861983,-0.1985682769134493,0.7169214652316405,0.06943360352796493,-1.6923435879225779,0.1640151096288908,-2.7465808604023243,-6.402750272750854,-12.527625353336335,-35.027251625061034,109.60499599735323,,,,,,,,,,,,,-1.2570104623526925,-1.5992079966397275,10.192833163950702,-94.34662796020508,73.62375312805176,-19.171875724792482,-0.11498909206220917,0.020371568110753215,0.003495465790597247,-1.2570104623526925,-1.5992079966397275,10.192833163950702
20.0,0.20013576529591398,-0.5897495670645845,0.8764483597147844,-1.2520342825674544,-0.994654331653032,9.53195628932878,-0.03670296999210916,-0.06411448014568132,0.14548452706583362,0.6634859378431358,-0.21230766812668128,0.7070039785375782,0.08166883351719555,-1.6761519943966585,0.16812114558620928,-2.7097693494721953,-10.275000386238098,-11.88600048661232,-33.954751358032226,108.55011061416967,none,false,false,false,,,,,,,,,-1.051450048929409,-1.584080963244881,10.407915218203675,-98.22000442504883,74.26387794494629,-18.103875675201415,-0.03613935453854132,-0.0674961636875673,0.14386447901736096,-1.051450048929409,-1.584080963244881,10.407915218203675
21.0,0.26607254080241544,-0.5198392275813967,0.6206129325926304,-1.2283820056915282,-1.1599206788884475,9.515259971618653,-0.08677328557378668,-0.004089950784748676,-0.024700121241895592,0.6597827672958374,-0.24471494153141976,0.698124030828476,0.09652801975607872,-1.6796739614009857,0.19080351821146904,-2.638564691543579,-10.458750410079956,-7.119000325202942,-33.62587631225586,102.30899728727115,,,,,,,,,,,,,-0.9587644040584564,-1.6838555264443453,10.105282141430543,-98.40487991333008,79.03162796020507,-17.769750690460206,-0.07383069250787987,-0.004823391058362356,-0.029510767079225862,-0.9619320479035377,-1.6794045805186033,10.13536545753479
22.0,0.1431811631237175,-0.19520071528705896,0.44297250214160655,-1.2944191758539163,-1.246039006292966,9.474744263817282,-0.1626039571912572,0.011641212499303983,0.13477858805125303,0.6600897861462013,-0.26217516613941566,0.6912183621350456,0.09970401914096345,-1.6811101062625062,0.21100603627479253,-2.6056194375543034,-7.090500259399414,-4.447875195145607,-32.96400161743164,97.86526764967836,none,false,false,false,,,,,,,,,-1.150783878732838,-1.4407765417925866,9.91725639735951,-95.03550399780273,81.70462768554688,-17.111625728607176,-0.16203081545115697,0.008252722284950243,0.1331707912100719,-1.150783878732838,-1.4407765417925866,9.91725639735951
23.0,0.12361712939105927,0.13089846767485142,0.7295899874716997,-1.1547622686624528,-1.4681556031480432,9.510218858718872,0.04006776750069477,0.055053922603381614,0.03316311368390041,0.6619459801912307,-0.2585426384210587,0.6913677716255188,0.09891471013426781,-1.6762298464775085,0.20879030930809678,-2.61391491651535,-4.9016252136230465,-6.810375231429934,-33.351376342773435,101.5926937837716,,,,,,,,,,,,,-1.0307655473705382,-1.336812060601078,10.23926293849945,-92.84587844848633,79.33987747192383,-17.498250732421877,0.0563069284100565,0.05431794536548971,0.025632176179401944,-1.0307655473705382,-1.336812060601078,10.23926293849945
24.0,0.18526293141036934,-0.1441413931840775,0.8497151692133105,-1.0246097872070237,-1.1908811584261119,9.561201076881558,0.1553559380002541,0.01634480157811748,-0.08816472508271436,0.6582451690645779,-0.2644296585052621,0.6860137862317702,0.1338638034375275,-1.6687468816252315,0.16650893422318438,-2.5569426990022848,-5.8533752202987674,-7.547625315189362,-33.448501434326175,102.90331022015788,none,false,false,false,,,,,,,,,-0.8390485706976524,-1.334707414430073,10.4103916906843,-93.7976284790039,78.6026277923584,-17.594250869750976,0.15591819368597895,0.012975371064673556,-0.08977660906989829,-0.8390485706976524,-1.334707414430073,10.4103916906843
25.0,0.20503676142128607,-0.29408156777741296,0.845298548367354,-1.1289976127076857,-1.2165338938484098,9.484585431542728,0.17748688705557703,0.02660625061823749,-0.1336998774615281,0.6468962967985927,-0.2829542564283503,0.6833228551515258,0.15395969240972313,-1.686942203210132,0.15760433635706692,-2.4962295258399285,-6.543375263214111,-7.194375301003456,-33.76912628173828,102.41729148487704,,,,,,,,,,,,,-0.9237285471335054,-1.5164490722492336,10.350004982948303,-94.48612808227539,78.95550308227538,-17.916750679016115,0.178055758825412,0.023226714775185373,-0.1353188705831474,-0.9236124234993269,-1.510256507498498,10.32939107819359
26.0,0.26976524406642305,-0.5396606920140923,0.2509440431992213,-1.1181964348344242,-0.7508093287766564,9.576165264728022,0.13650037545710803,-0.05681087480857969,6.5312335267663E-4,0.6461553222992841,-0.27415213733911514,0.6850892527430665,0.17429554900702307,-1.6753684165431004,0.11598715270520188,-2.483980791241515,-7.0488752746582035,-8.619000322818756,-32.64150173187256,104.94330986494623,none,false,false,false,,,,,,,,,-0.8494143960167571,-1.2870119335590908,9.846971776225779,-94.99125305175781,77.53200302124023,-16.78800075531006,0.12226064032921106,-0.06099418264878268,0.007041089697787077,-0.8479691570551664,-1.2901000530075502,9.826590192084218
27.0,0.09265691886245651,-0.46159791255757066,0.10700161351204508,-1.051244271993637,-1.026760647855699,9.564173107147218,0.030298527202331553,-0.026026592690351548,0.018921079716699964,0.6472213250575679,-0.27947499949743254,0.6864663492334951,0.15803026710406387,-1.6839151571292688,0.14570730634201964,-2.497948162626512,-4.748625183105469,-7.66462521314621,-32.927626342773436,103.25626848535215,,,,,,,,,,,,,-0.956040637918038,-1.4748713591477216,9.67266577069122,-92.69362823486328,78.48525283813477,-17.07262565612793,0.026808415677877936,-0.026394554953284487,0.019024010383441013,-0.956040637918038,-1.4748713591477216,9.67266577069122
28.0,0.23646681253235824,-0.7679275611397063,0.45224980684458327,-1.1485748178888076,-0.8051052500705907,9.562631493747825,-0.08111682520847362,-0.023609158384733566,0.061606805135339206,0.6500246554318041,-0.2709052468290423,0.6866841451956494,0.15461231716493568,-1.6782768941161657,0.1413304887776549,-2.5165788655233854,-4.272750186920166,-9.144000353813171,-33.348751373291016,105.23200771438832,none,false,false,false,,,,,,,,,-0.9103118050660864,-1.5731250751106178,9.99252249212826,-92.21812850952148,77.00700332641601,-17.494500846862792,-0.08054505105563763,-0.02698403452108107,0.05998675808273625,-0.9116718224111465,-1.5725718573621004,10.014359837711448
29.0,0.10459131786212472,-0.5020787719047011,0.7176333546158996,-0.9109238622212174,-0.9521404712802113,9.60791255459927,-0.06491482494325906,-7.238979223092981E-4,0.07410575988629431,0.6547912795944969,-0.26808699095013117,0.6835608936772488,0.1558743954294979,-1.664578958313064,0.13923822717261639,-2.520631436074134,-5.239500236511231,-9.112875313833356,-34.01175117492676,105.06452601850326,,,,,,,,,,,,,-0.8059158816398813,-1.4538089775083827,10.32500689572627,-93.18375259399414,77.03850288391114,-18.158250732421877,-0.06435269490797438,-0.0041074759016434354,0.07249080811115895,-0.8059158816398813,-1.4538089775083827,10.32500689572627
30.0,0.33961063650820184,-0.7274673964609119,0.8604380505743856,-1.154193089873183,-0.7329499846616504,9.505620591780719,-0.17201249787381084,-0.025577723094732455,0.03595284660263817,0.656075108869403,-0.26671242100350995,0.6826437904554254,0.1444096274527849,-1.6663957740746291,0.15517802251954838,-2.5380954625559786,-6.1826252841949465,-9.303750319480896,-33.7582515335083,105.54967022270945,none,false,false,false,,,,,,,,,-0.8142912122740538,-1.4600133011254537,10.365568132961497,-94.12950302124024,76.84687828063964,-17.903625583648683,-0.17144616498233806,-0.028951237420782004,0.03433007424199345,-0.8142912122740538,-1.4600133011254537,10.365568132961497
31.0,0.35844849433639264,-0.639456771240376,0.8484267429610032,-1.2406284880638123,-1.0573828156292437,9.465483016967774,-0.07193542123023494,-0.043509313051461,0.11627647073884659,0.6529783948813335,-0.28576876400130813,0.6798328597946922,0.13496280195984509,-1.6825672057595584,0.1924752386397507,-2.5172565903994117,-8.559000310897828,-6.124125210642815,-33.95512638092041,100.7985332277293,,,,,,,,,,,,,-0.8797797437683486,-1.665791657873162,10.313966326194235,-96.50212860107422,80.02575332641601,-18.101250686645507,-0.057977351101834586,-0.044846782502303326,0.11197128653581633,-0.8797797437683486,-1.665791657873162,10.313966326194235
32.0,0.0786625494371287,0.1115628586735065,0.614915563343732,-1.259641175176583,-1.5521686975570286,9.43030870662016,-0.06099282205104828,0.05858452873544233,-0.012893688076609138,0.6561624495422139,-0.2973667358358701,0.6768241851937538,0.12000412749601345,-1.6821051099721123,0.23188535324708723,-2.5205308362549426,-6.833625326156616,-4.321875143051147,-33.23962608337402,97.55419425864791,none,false,false,false,,,,,,,,,-1.1805456514817243,-1.4402059496462565,10.044751943326464,-94.77825378417968,81.82762802124023,-17.386875648498535,-0.06042784688496353,0.0552001230344914,-0.014515098382598988,-1.1805456514817243,-1.4402059496462565,10.044751943326464
33.0,0.17708882188774866,0.214677614703922,0.7751661801139021,-1.142440020742983,-1.647087530887658,9.473762493322392,0.1102628673189411,0.039636396268820935,0.07818897075805009,0.6508674550764632,-0.3124305936369565,0.6710433942256587,0.1419462084327594,-1.6841699900013385,0.21933682908138058,-2.466024375197911,-7.546875324249267,-4.957125103771687,-32.87100147247315,98.89567473748957,,,,,,,,,,,,,-0.9649589621452707,-1.4319654095521437,10.24840001304551,-95.49037841796876,81.19350311279297,-17.01637571334839,0.11083174044010687,0.03625281878253993,0.07656727968623825,-0.9649589621452707,-1.4319654095521437,10.24840001304551
34.0,-0.010706852390753602,0.10432492755353451,1.065801869745892,-0.9119974540011717,-1.6988113993170237,9.454202689746818,0.23622775138821453,-0.031121750446036458,0.023277376028709114,0.6669086754912197,-0.2810283174904266,0.671557635363966,0.12119235670064936,-1.648438248303857,0.21590947020928017,-2.549089743359254,-7.028625249862671,-6.559125211834908,-31.881751251220702,101.90991428265812,none,false,false,false,,,,,,,,,-0.9223218318259362,-1.593934235153812,10.519506463910094,-94.97287841796874,79.59187759399414,-16.02787567138672,0.2367956223571673,-0.03449874969664961,0.02166037476155907,-0.9223218318259362,-1.593934235153812,10.519506463910094
35.0,0.2808116222985347,-0.4676079310403012,0.6190618859733096,-1.148826795049233,-1.0266979341164675,9.521294225560556,0.10439215584055465,-0.008065317940039961,-0.145334803225363,0.6578648910664096,-0.26884085087492915,0.6818895959618068,0.14237881201033545,-1.6646441032390784,0.16161686169227935,-2.537527865702563,-5.202375221252441,-9.45900041282177,-31.217626304626464,106.8573337046738,,,,,,,,,,,,,-0.8675911301599428,-1.493961459154835,10.139838586939444,-93.14775344848633,76.69162811279297,-15.363375663757324,0.10495428459755346,-0.011440808446530034,-0.14694436347367718,-0.8675911301599428,-1.493961459154835,10.139838586939444
36.0,0.24827927349171802,-0.6268528435452312,0.40698122558202227,-1.0973676530753864,-1.0061879981875272,9.527448495229086,0.06611435316816562,-0.003973886061754852,-0.007925988659078237,0.6549563816949433,-0.2795569026002697,0.6808963815371195,0.1450638427746062,-1.6700108249982197,0.17064062712312328,-2.5165212808870803,-5.429250226020813,-8.489250363707542,-30.851626472473143,105.50773956102786,none,false,false,false,,,,,,,,,-0.848751512958723,-1.6326824341736295,9.933910757887597,-93.37350311279297,77.66175262451172,-15.00000066757202,0.06668749750859224,-0.0073474006183297915,-0.009539233589784639,-0.848751512958723,-1.6326824341736295,9.933910757887597
37.0,0.23061122985093943,-0.7863818337624469,0.14483255527839803,-0.8623742284161029,-0.5066852664003277,9.612034750456857,-0.07252989700246676,-0.007476225846867059,0.02807426479115498,0.660762878927854,-0.25285446437278597,0.6835502091020641,0.15717710008715638,-1.647583809229407,0.11983004674582862,-2.5429708178680723,-5.440875220298767,-10.608375299423933,-30.284626274108888,109.17370869407226,,,,,,,,,,,,,-0.6314525047114284,-1.292695604089537,9.756407402529575,-93.3843780517578,75.54300262451171,-14.431125659942627,-0.07195833003988453,-0.010854411865675859,0.026453920722226885,-0.6314525047114284,-1.292695604089537,9.756407402529575
38.0,0.26055018026746957,-0.7839813216671567,0.561075764023425,-1.021378644541198,-0.7027028236976441,9.603768928378235,-0.016485025308620515,-0.028255569536497098,0.0339420791992014,0.6621386668469647,-0.25119881081109,0.6877285932550335,0.13282859362292998,-1.659764030192158,0.15131232219674431,-2.5794084780287037,-6.059250240325928,-10.344375441968442,-29.278126220703125,109.3712903472396,none,false,false,false,,,,,,,,,-0.7604529720311072,-1.4863544804336248,10.164376969430961,-94.00500366210937,75.80625282287598,-13.423500537872314,-0.01591868615146763,-0.031638613814432726,0.03232747707331535,-0.7604529720311072,-1.4863544804336248,10.164376969430961
39.0,0.21358171130051043,-0.6230624833762055,0.7571429122645076,-0.9883856454698166,-0.6952987333741223,9.620769085270343,-0.04914816815004337,9.395832962849561E-4,0.042513111113187146,0.6502300123176953,-0.2806767625088739,0.6792340319935638,0.1708809908958945,-1.6673927838259404,0.13392578102509942,-2.479122546639773,-7.16475025177002,-7.869375339224934,-29.365876274108885,104.9386780386199,,,,,,,,,,,,,-0.7744411274348155,-1.3180619351713374,10.37742521267126,-95.10900314331055,78.28200302124023,-13.51312551498413,-0.04857794088585412,-0.002435906607584626,0.04090624923507372,-0.7744411274348155,-1.3180619351713374,10.37742521267126
40.0,0.2534359233709527,-0.6429533504826181,0.6218631411263463,-0.9979738645693835,-0.7881222911402765,9.572229301228242,-0.13183118827585685,-0.03186051991519214,0.049197771005553774,0.6490331005816367,-0.2874709507998298,0.6782888413644305,0.16258501970008307,-1.6763855160451402,0.15402769647063871,-2.4781943559646606,-5.812500247955322,-7.54350026100874,-31.11712619781494,103.81125299212486,none,false,false,false,,,,,,,,,-0.7440618006101645,-1.4307530056319984,10.193541615617042,-93.75862854003907,78.60750373840332,-15.263625545501709,-0.13126076714108043,-0.035232672868941974,0.04758997659872074,-0.7440618006101645,-1.4307530056319984,10.193541615617042
41.0,0.3969069081220296,-0.24089988475978966,0.4717478748171194,-1.043130380682426,-0.7387526753441532,9.572291525283662,-0.19419583294303247,0.011506862162301937,0.17882818257545724,0.6497843318646497,-0.28266737713377077,0.6804767634608958,0.15427337660647855,-1.6809574436433246,0.15928558094685177,-2.4973369140436152,-6.579750237464904,-7.7118752837181095,-31.390126571655273,103.70587785741692,,,,,,,,,,,,,-0.6459416152890955,-0.9794599468091337,10.043563847494598,-94.52625366210937,78.43875282287598,-15.537375526428223,-0.19362291716970503,0.008131372568873214,0.17722401480354807,-0.6459416152890955,-0.9794599468091337,10.043563847494598
42.0,0.2193933709241523,0.10880796092690206,0.30990157460830375,-1.026370352974125,-0.7889929213332852,9.652156362346574,0.05937004962585645,0.00562116326210965,0.07165928112140091,0.6533819115629383,-0.25175608723771337,0.6942375010135127,0.14957757878537273,-1.673302665645001,0.12234020737791891,-2.556247075398763,-7.399125289916992,-7.8588753085583445,-30.25950107574463,104.50653348433434,none,false,false,false,,,,,,,,,-0.8067250398590284,-0.679992677789985,9.961557855793075,-95.34337844848633,78.29137832641601,-14.404125576019288,0.059941832759961636,0.0022381185646178107,0.0700419558820748,-0.8067250398590284,-0.679992677789985,9.961557855793075
43.0,0.19077272017486394,0.14722719542682172,0.6967581002786756,-0.7319516248927258,-0.9975434047455835,9.657196224325954,0.04437879541907094,0.03901629865753884,0.020840685476786365,0.658976137638092,-0.25614300989868616,0.6854838575467025,0.15545657409889863,-1.654477813456318,0.12650420507047289,-2.542516045051046,-20.536875886917116,-2.971500099897385,-21.381375904083253,100.10944100510785,,,,,,,,,,,,,-0.5489495367936716,-0.8661817197531166,10.369646034618416,-108.48225448608399,83.17612823486328,-5.526375251710415,0.04494362344107061,0.03564350475447581,0.019224385922665104,-0.5489495367936716,-0.8661817197531166,10.369646034618416
44.0,0.2395674202239652,-0.14117033326742695,0.6814970404512304,-0.9961705231199077,-0.947498718605322,9.61639481899785,0.14583849238858806,0.005103836264830119,-0.12786274506609038,0.6567933179584204,-0.2520542950460724,0.6891901989777883,0.15064040191617667,-1.6638175728274327,0.12454827131438709,-2.5539201895395913,-35.60962640762329,14.284500567913055,-11.303625444173813,147.73044735288522,none,false,false,false,,,,,,,,,-0.7562456267027586,-1.0883029887964035,10.297394668354707,-123.55425537109375,100.436254196167,4.552125098183751,0.14640210500208312,0.0017303217266972112,-0.12947462714913457,-0.7562456267027586,-1.0883029887964035,10.297394668354707
45.0,0.008350279558487612,-0.15311957477130975,0.420329844278067,-0.7801008459293481,-0.5155050363515109,9.687244029960247,0.04200148154142322,0.026197153669182616,-0.022702475235161213,0.6584646641606032,-0.22120697992016572,0.6968076500025663,0.16574698972581614,-1.6486904753579035,0.06051804304518031,-2.582631067796187,-44.82562675476074,-15.582000476121902,-74.48700271606445,101.47133920425878,,,,,,,,,,,,,-0.7777651920538358,-0.6392439719139025,10.125723222289423,-132.77100494384766,70.56750316619873,-58.634627227783206,0.041428749687038365,0.022687499625608325,-0.019764250470325352,-0.7713409493291619,-0.6684454879112015,10.107036860302241
46.0,0.268324107632461,-0.29980671193962005,0.002736542739120184,-0.908522694718604,0.07477099755231072,9.632383916892257,0.10561361245460588,-0.020306435445932174,-0.1978475227583163,0.6423236172573239,-0.21897786337078787,0.6962765420184416,0.2092666471121358,-1.6582338646346448,-0.011536422906918269,-2.5216931361778108,-31.414876136779785,-22.95187595009804,-14.180625524520874,145.7360860115199,none,false,false,false,,,,,,,,,-0.6397897366790429,-0.22488089307558304,9.634637229582843,-119.36100372314453,63.19837745666504,1.6721250953525304,0.10617858987061841,-0.023681311674489832,-0.19947029727667864,-0.6397897366790429,-0.22488089307558304,9.634637229582843
47.0,0.4789525702223182,-0.7033331490308047,0.40079991333186626,-0.9851983118057251,-0.13931220887228846,9.60226185798645,0.08435284337121071,-0.040972277093309875,0.011009531538232718,0.6344526970386505,-0.257986309081316,0.6882723885774612,0.21772968992590905,-1.6717453336715697,0.027951545759569853,-2.4497393703460695,-13.112625575065612,-17.219250708818436,-30.266626014709473,118.58715748559713,,,,,,,,,,,,,-0.5059560246719047,-0.842380541600287,10.002524008750916,-101.05837890625,68.93062782287598,-14.413875637054444,0.08491918182756641,-0.044341707712795476,0.009393567910952734,-0.5059560246719047,-0.842380541600287,10.002524008750916
48.0,0.32516538147248475,-0.880384789998917,0.7371182654363414,-0.968485929217993,-0.20347241865580573,9.607814358729943,-0.16484616538694147,-0.016344801983842167,0.14854220253424627,0.6367563412469976,-0.27005383284652934,0.6832500912395179,0.20603255869126788,-1.6758209794175392,0.06335015125645727,-2.445737212311988,-5.479500241279602,-10.103625357747077,-33.12037628173828,106.96297716615177,none,false,false,false,,,,,,,,,-0.6428853285033256,-1.0836338686811573,10.344459309297449,-93.42600372314453,76.04362838745118,-17.26762565612793,-0.16427846223872045,-0.01971151030133709,0.14692623394144938,-0.6428853285033256,-1.0836338686811573,10.344459309297449
49.0,0.35483923539666845,-0.5274467525800856,0.8742892672630524,-0.9893994862490362,-0.41316239174344754,9.630354012593184,0.018717522559431838,-0.06719166671802454,0.06962487610130041,0.6391685400346313,-0.2765874861165731,0.6840852113685223,0.19962984805155282,-1.6736323412018592,0.08143655468023034,-2.447001421090328,-3.489375108256936,-9.078750366419554,-32.6081262588501,105.76803755831483,,,,,,,,,,,,,-0.6361650325590744,-0.9562695485632866,10.525618982315063,-91.43512771606446,77.07112838745117,-16.756875648498536,0.024237124593928457,-0.06883387522306293,0.06539087519980967,-0.6342327056480295,-0.9404347013995642,10.504167811705335
50.0,0.24690263653995798,-0.5610089565937718,0.5594638119059085,-1.0266740532482372,-0.2608850374635236,9.628173482184316,-0.15563502632966725,-0.0103751239136304,0.03421299477190812,0.6452373762925466,-0.2521020114129665,0.694936369564019,0.16868270583012523,-1.6821601905074774,0.0918679718001216,-2.5281272378622317,-0.7762500178068876,-11.076000344753265,-31.311001319885253,109.71074996998321,none,false,false,false,,,,,,,,,-0.7793691554289385,-0.821704448301199,10.187168116663017,-88.72050323486329,75.0735025024414,-15.459000701904296,-0.1550632401341849,-0.01374319476988351,0.032597028221566196,-0.7793691554289385,-0.821704448301199,10.187168116663017
51.0,0.13710796925277302,-0.2018545604504571,0.32902371431332045,-0.9568580802124326,-0.216728920946912,9.684174509331731,-0.06803823386629422,-0.022551348008324996,0.07485796399779764,0.6517439366567253,-0.23273492014349098,0.6986533474214006,0.1618527321532221,-1.6693153688223055,0.07771367410262402,-2.569366419669425,-1.2341250534355641,-12.271875429153443,-29.61937610626221,112.26337605770192,,,,,,,,,,,,,-0.8193297413890112,-0.41849110648036003,10.01266089996489,-89.17912796020508,73.87875305175781,-13.76362548828125,-0.06747205708833302,-0.025922793885875567,0.07323762340763328,-0.8193297413890112,-0.41849110648036003,10.01266089996489
52.0,0.1577542496310307,0.09244304522871971,0.41802994676376926,-0.998080842565782,-0.5468695948573549,9.65414824344144,-0.024961017201294993,0.03037388525479058,0.030480074889884138,0.6541778982275783,-0.2279750878120413,0.7036065046149905,0.14028642614289086,-1.6760108175844248,0.10121675521956,-2.6061877189296307,-2.107125087082386,-9.732375383451581,-33.03112632751465,106.4645632272874,none,false,false,false,,,,,,,,,-0.8314559188872284,-0.4618014914951488,10.043850496703504,-90.05175338745117,76.4152529144287,-17.175375785827637,-0.01264449767768383,0.027381749623455107,0.023064248636364935,-0.8314559188872284,-0.4618014914951488,10.043850496703504
53.0,0.10667216907356783,0.11768185472724461,0.7126498316935642,-1.0692733756386408,-0.7809566622138908,9.632311065598289,0.07592291569373771,-0.0016122536331999535,-0.04124325818802212,0.6517425816838104,-0.2305607121474672,0.705350659271278,0.13587433675138078,-1.685130489934789,0.10950151178755309,-2.6076833564456146,-2.829000097960234,-11.293125476837158,-34.63350154876709,107.94916056936472,,,,,,,,,,,,,-0.9621876742838338,-0.6631574591086937,10.344483115885517,-90.77250228881836,74.8582527923584,-18.77887577056885,0.0764810040812282,-0.004993138031340113,-0.0428636030604442,-0.9621876742838338,-0.6631574591086937,10.344483115885517
54.0,0.17129624942040975,-0.05632812164650105,0.7596682801238713,-0.9014620385547676,-0.9381169067824832,9.593234109406424,0.2313808723539114,-0.0019511247752234339,-0.07394612637348473,0.6541200091343115,-0.23242577364539155,0.7002519717310914,0.13561510914328076,-1.6782195202194818,0.11533541405702581,-2.604301412506859,-4.595250191688538,-10.08975047469139,-33.80700160980225,105.71989069955868,none,false,false,false,,,,,,,,,-0.7293029781522266,-0.9949426946102404,10.368269574408437,-92.54025329589844,76.0616276550293,-17.95012550354004,0.23195837281644344,-0.005328125120140612,-0.07556175029836595,-0.7298599378768318,-0.9941198498305708,10.35244055077581
55.0,0.20140020853590848,-0.12388625803707849,0.6573181117857152,-0.9881281132745271,-0.9535529128838294,9.561575398586765,0.10947696217700985,0.0037044113794086025,-0.02440355327345577,0.6537422722578049,-0.2285596626251936,0.7035616898536682,0.13197708033025266,-1.6814929831027985,0.11437387688085437,-2.6157437109947206,-4.383750174045563,-11.088750523850322,-31.667626304626467,108.95934380616762,,,,,,,,,,,,,-0.7863193410679256,-1.077237678156926,10.218401469806633,-92.32912857055663,75.06187789916993,-15.816375617980958,0.12666336329893604,9.65222919193825E-4,-0.03423477746177428,-0.7863193410679256,-1.077237678156926,10.218401469806633
56.0,0.2190615191437103,-0.8111316408304607,0.20527741239935743,-1.304456589268703,-0.21422976401506685,9.587584289849973,0.05248823856916463,-0.038346163029459736,-0.012144926870887232,0.6440294244710136,-0.2048875112451759,0.7204116074477925,0.12792852886167227,-1.7092680124675526,0.08019632979652241,-2.6576055849299713,-4.197375180721283,-13.060500416755676,-26.49862602233887,115.83937047414561,none,false,false,false,,,,,,,,,-1.084927992603066,-1.0251897514030777,9.792350483875648,-92.14162750244141,73.09050285339356,-10.644375457763672,0.05305593944901582,-0.04173737600685494,-0.013755447655399837,-1.084927992603066,-1.0251897514030777,9.792350483875648
57.0,0.24688755293920783,-0.6884824629725501,0.15225178925412716,-1.1322790283967954,-0.6427036878182599,9.597930303894648,0.06398198651332482,-0.03042254859453761,0.015754534410970175,0.6542650124814251,-0.21580124720193372,0.7106195210230233,0.11977310862281534,-1.6871753423520834,0.11267211899567063,-2.652022106812732,-4.568250164985657,-10.760250497758388,-27.325126266479494,111.30516827241196,,,,,,,,,,,,,-0.8849554907641198,-1.330782246900409,9.749701957891483,-92.51250350952148,75.38812744140625,-11.472375478744507,0.06454276662392944,-0.0338142157997936,0.014154411765618944,-0.8849554907641198,-1.330782246900409,9.749701957891483
58.0,0.33312870727797206,-0.8236854310859653,0.5459778505827154,-1.2299149965538698,-0.7005326378195748,9.543212039797913,-0.03123836941316281,-0.07039047000321126,0.10089368670072296,0.6464404411175672,-0.21813564674527036,0.7145502865314484,0.12012582316118128,-1.706273241370332,0.11167128334351469,-2.6467014948527017,-3.973125159740448,-11.370000424087047,-30.708751449584963,109.93004276034361,none,false,false,false,,,,,,,,,-0.8963603387157634,-1.5238103637763976,10.08873137773252,-91.91812789916992,74.78025329589843,-14.856000595092773,-0.030666584241213185,-0.07375853961923777,0.09928316744689894,-0.8963603387157634,-1.5238103637763976,10.08873137773252
59.0,0.38483669753186406,-1.0789492440596222,0.9128454261925072,-1.278478057384491,-0.5031955396290868,9.508594007492066,-0.07422573924722041,-0.02213884793751526,-0.05120796393877005,0.645615563534274,-0.23771988128376478,0.7067592698748749,0.12348531736153187,-1.7053735704705266,0.13429557998655456,-2.6103303692128397,-5.196375215053559,-9.160500347465277,-31.392376327514647,106.69882061920572,,,,,,,,,,,,,-0.8974441037614747,-1.587540673885015,10.39673662185669,-93.14062866210938,76.98975288391114,-15.538500709533691,-0.06048638414185826,-0.023206188698474427,-0.054993195214889726,-0.8974441037614747,-1.587540673885015,10.39673662185669
60.0,0.4094747449453993,-0.8278372149695369,1.1122384533724363,-1.2621075686286478,-0.5116451843915617,9.50071335773842,-0.13006683321909443,-0.026796162566446728,0.1371473997444062,0.647985214696211,-0.2537703437401968,0.69693156784656,0.1304654222639168,-1.6980949406530343,0.14934842467454135,-2.5745572693207683,-6.764250249862671,-9.097500297725201,-28.50375114440918,108.45173685486779,none,false,false,false,,,,,,,,,-0.8523103348253405,-1.339223600924015,10.612429922702265,-94.70962844848633,77.05275283813477,-12.651000518798828,-0.12950049354556467,-0.030169678294090646,0.13553415863120025,-0.8523103348253405,-1.339223600924015,10.612429922702265
61.0,0.48328256926033647,-0.6602355804294348,0.8687903287261725,-1.3339705634117127,-0.7544529100880026,9.492480697631835,-0.06538737439873195,-0.025074009995649356,0.028319554864475044,0.6458618891239166,-0.2674093607068062,0.695184463262558,0.13226130962371827,-1.7020928537845612,0.16358664848376064,-2.550171914100647,-6.258000268936157,-6.743625283017755,-27.76162612915039,103.7259893974321,,,,,,,,,,,,,-0.8502330429852009,-1.414486564779654,10.360784006118774,-94.20412872314454,79.40587799072266,-11.90700047492981,-0.0648237644962155,-0.028462500090129895,0.026702224636579504,-0.8502330429852009,-1.414486564779654,10.360784006118774
62.0,0.3454362546942909,-0.1751003509716076,0.5636593743282206,-1.2179041347082924,-0.9363849468748359,9.523300657085343,-0.11623514935116072,-0.029196286813752487,0.07762215289259607,0.6525605659858853,-0.26407626315074806,0.6939175450334362,0.11872284275059607,-1.6931312797116298,0.1824855436890514,-2.5763780486349965,-1.8502500620484352,-6.995625285357237,-29.55712615966797,103.2977040383609,none,false,false,false,,,,,,,,,-0.8719632780800263,-1.1111721136954194,10.086515132118674,-89.79637817382813,79.15462821960449,-13.704375562667847,-0.11566880949321065,-0.032575248380993856,0.07600346364375979,-0.8719632780800263,-1.1111721136954194,10.086515132118674
63.0,0.1590409418475805,-0.13038958432060657,0.574233337167171,-1.1491411292907034,-1.0605529370985114,9.559319090135027,0.047081613000117095,0.08818333280071908,-0.007008455104797202,0.6485348326144832,-0.2796876732960786,0.6928874159803485,0.11891456361454313,-1.703848677106423,0.20062518502253635,-2.5493123153648756,-1.440000063404441,-7.47000031478703,-29.298376235961914,104.5288764110895,,,,,,,,,,,,,-0.994617043286562,-1.1868645559251307,10.147281494140625,-89.38350296020508,78.6798779296875,-13.444125509262085,0.04764240330048636,0.08480110248167287,-0.008623407162981583,-0.9897193500015995,-1.1905990660485655,10.133060398668345
64.0,0.24357831991729464,-0.11616413732345152,0.8502181618299225,-1.1739667426137363,-1.0849194335477317,9.547835555731082,0.0677779702709453,0.0018174508217685293,0.05408650947421199,0.6471938225302366,-0.2707214067773064,0.6952608162813848,0.12748670319814492,-1.703487254605435,0.17438451986354175,-2.5512948295857645,-2.4191250988841055,-9.685875414013863,-26.367751045227052,110.0256137556996,none,false,false,false,,,,,,,,,-0.9279176878432432,-1.2451279947817253,10.391234346464568,-90.3630029296875,76.46550338745118,-10.515375471115112,0.068341578550563,-0.0015724002577290677,0.052474629000235015,-0.9279176878432432,-1.2451279947817253,10.391234346464568
65.0,0.26659813169205543,-0.725645641289135,0.8034756020596712,-1.1055178678035735,-0.7334198155999183,9.555702362060547,0.17524509557395004,8.250001279235471E-4,-0.06381482886625271,0.6542438161373139,-0.2502372494339943,0.6956863951683044,0.11635951973497867,-1.6887348413467407,0.16794488124083728,-2.6003601121902467,-2.890875108540058,-9.68737540408969,-26.65875102996826,109.967808781967,,,,,,,,,,,,,-0.8369049955860223,-1.4280565112902976,10.357714374466697,-90.83437805175781,76.46250312805176,-10.803750429153443,0.1906594082593254,-6.521041320618426E-4,-0.06983638527148431,-0.8369049955860223,-1.4280565112902976,10.357714374466697
66.0,0.1579017441208456,-0.5119026783264845,0.7152837072773015,-1.1928290403356738,-0.9193607714100211,9.552491786433201,0.09482871146300936,0.01979046880664064,-0.08338217708365162,0.6501770679857216,-0.2400099490495289,0.7074529113722783,0.11158248088231273,-1.7018817604756822,0.15573893482888154,-2.623783784754136,-2.820000107437372,-9.263250387609006,-28.584751205444334,108.14311363826978,none,false,false,false,,,,,,,,,-1.0344279901508022,-1.4309044840800411,10.267282808528227,-90.76312774658203,76.88587829589844,-12.732375507354737,0.095396411420759,0.016422401500478533,-0.0849995044392008,-1.0344279901508022,-1.4309044840800411,10.267282808528227
67.0,0.03849069716408849,-0.29506294704973696,0.06183252390474081,-1.0152855479717255,-0.7944094738736749,9.632701377868653,0.054816214238653085,0.016964232419977094,-0.05294702987712208,0.6546586215496063,-0.22770892217755317,0.7055786716938018,0.13041130915284158,-1.67990443110466,0.11504497084184549,-2.620447516441345,-3.801000167131424,-11.95050053358078,-29.766001205444336,111.66792936470219,,,,,,,,,,,,,-0.9690876744761325,-1.087155496411136,9.666162368094566,-91.7456282043457,74.19900283813476,-13.912125549316407,0.05538663430379169,0.013597524844773926,-0.054572524871714045,-0.9764790511131287,-1.0892070510843768,9.694074487686157
68.0,0.247665744264481,-0.23122662535435198,-0.07943789310532041,-0.953627869634345,-0.542943900423401,9.696772754782497,7.97498170286417E-4,-0.0436369990138337,-0.02780524978414178,0.6252274583367741,-0.2960531375571793,0.6815415679239759,0.22727330321190403,-1.681365595144384,0.06051418699915338,-2.377023362645916,-8.445000252127647,-10.68637541770935,-30.781501140594482,108.27379857826072,none,false,false,false,,,,,,,,,-0.7045059160274618,-0.7798044456799021,9.59389900226219,-96.39262878417969,75.46425262451172,-14.926125612258911,0.0013640036061406135,-0.0470126244938001,-0.02941812447272241,-0.7045059160274618,-0.7798044456799021,9.59389900226219
69.0,0.17473802506923675,-0.07687580844387412,0.534045791849494,-1.035769787165198,-1.026329069112492,9.608871733788217,0.053887746748652786,-0.03605631191633863,0.04327710345387459,0.6267197627832394,-0.31579872169116935,0.6750999671397823,0.21416705920554624,-1.6943768770387857,0.10779920811672686,-2.3621464389385562,-9.477000398635864,-9.637875415086747,-30.673501358032226,107.6100406648713,,,,,,,,,,,,,-0.8607855426520109,-1.1218365465290845,10.141432938575745,-97.42387939453126,76.51087799072266,-14.820000534057618,0.04414423898446793,-0.04266139676374402,0.04397708075303657,-0.8607855426520109,-1.1218365465290845,10.141432938575745
70.0,0.10692346659673396,-0.2822587869618789,0.5938170068703665,-0.9308931777382842,-0.9968219046886678,9.631642974249207,-0.050481752315536144,-0.018015250312164426,0.015886749867349864,0.6281649777204683,-0.33520941864145865,0.6616812637536833,0.22250081997106572,-1.6834921907670428,0.12778977534300326,-2.3178253457097724,-8.90250033378601,-6.279750236868859,-29.409751319885252,102.04787966177662,none,false,false,false,,,,,,,,,-0.823540142156405,-1.278711450498293,10.224955454911337,-96.84450454711914,79.8693783569336,-13.555125541687012,-0.04991112153045833,-0.021392249460332094,0.014282123600132764,-0.823540142156405,-1.278711450498293,10.224955454911337
71.0,0.21737215669825674,-0.45982830204069614,0.6556565624475479,-0.7520919787411643,-0.5352312191158975,9.700687134619987,-0.08710759571826487,-0.004706005743869087,0.16343492481802754,0.6297704937434433,-0.3184757523312427,0.6673784356306095,0.22221730723239408,-1.6801624180066703,0.10502198180137663,-2.3451439106818475,-6.268125247955322,-8.704125384315848,-30.931126289367675,105.41443804835912,,,,,,,,,,,,,-0.5368559682502014,-1.0106495522921628,10.325930685099989,-94.21462844848632,77.44725311279296,-15.075375709533692,-0.08654816256032563,-0.008085539975367925,0.16182132257952117,-0.5368559682502014,-1.0106495522921628,10.325930685099989
72.0,0.0895815988655622,-0.11128031480692181,0.39318376475963374,-0.8466306486550499,-0.835022497639133,9.675255663254681,-0.11147846632849166,-0.015615098810026257,0.03555259817178444,0.6413835035819634,-0.29591304954944875,0.6771822075049082,0.192078322902614,-1.6752338012059529,0.12049309001304209,-2.426408646153469,-5.049375216960907,-9.746625363826752,-32.64937641143799,106.35886648989035,none,false,false,false,,,,,,,,,-0.7567426835131996,-0.9460044563108799,10.06791960959341,-92.99212783813476,76.40287841796875,-16.796625709533693,-0.1109107661125536,-0.019000865989318577,0.03393118926277845,-0.7567426835131996,-0.9460044563108799,10.06791960959341
73.0,0.2517318510090803,-0.02066941947519484,0.2395647770337908,-0.7371114626674369,-0.7196493824888573,9.663377657975301,-0.06734803367369607,0.016584926138759826,0.016628063900177095,0.6428613745340026,-0.29639622539576915,0.6733763943804373,0.20018457333640297,-1.6649389325982273,0.11194783655262672,-2.414357374210169,-4.261500195264817,-6.941625258922577,-31.285876274108887,101.74321326687081,,,,,,,,,,,,,-0.4850628978600449,-0.7400807257889226,9.902442082320109,-92.20725357055665,79.20787803649903,-15.431250667572021,-0.06678455975819744,0.013210784356274149,0.015002328788350318,-0.4850628978600449,-0.7400807257889226,9.902442082320109
74.0,0.11892396129096056,-0.016096646962041904,0.43691630882791954,-0.7821207406497238,-0.5261125858910013,9.71884853060883,0.03803112300112844,-0.014354999968782067,0.08978062543552369,0.6409148827637776,-0.2854488617417836,0.6815504520246298,0.1976280191747269,-1.6711037123557364,0.09657239843860711,-2.4360952235684534,-5.275125230550766,-12.038250484466552,-32.036626167297364,110.36448985830724,none,false,false,false,,,,,,,,,-0.6648559190752897,-0.5544176723296735,10.125079898273244,-93.22200286865234,74.11125328063964,-16.182000789642334,0.03860312653705478,-0.01772924985270947,0.08816224780399352,-0.6648559190752897,-0.5544176723296735,10.125079898273244
75.0,0.19976658617621196,0.08743486325671472,0.6638022906303701,-1.0080904801293176,-0.5373099499548057,9.69898546804296,0.10108406796101846,-0.012697181317443941,-0.07247732970498356,0.6369264751377672,-0.2654413281395884,0.6939364276310005,0.19436289104494717,-1.6847672958185178,0.0684967255600184,-2.4721876890352457,-5.294625225067139,-12.120750427246094,-30.241876373291017,111.61325795765796,,,,,,,,,,,,,-0.8079564774242958,-0.44972527702108467,10.362220306207638,-93.24262771606445,74.02875289916992,-14.386125602722167,0.1016502457068247,-0.01606053914235649,-0.0740963205439495,-0.8079564774242958,-0.44972527702108467,10.362220306207638
76.0,0.27524917810132693,0.06402510358933725,0.48056431750164313,-1.12400886591743,0.017360923702225965,9.691111125198065,0.12119875764382063,-0.045221162724797384,-0.16925297166672673,0.6253714321875105,-0.25374939278060316,0.6980682348503786,0.2205585184342721,-1.691269761207057,0.008292213808197309,-2.4521884801341036,-5.489625205993653,-14.036625604629517,-29.668876266479494,115.10433391372688,none,false,false,false,,,,,,,,,-0.8484073979597465,0.0814205932193527,10.171182856840247,-93.43575302124023,72.1147533416748,-13.816125469207764,0.12175828958907635,-0.04859740080053706,-0.17086620842761333,-0.8484073979597465,0.0814205932193527,10.171182856840247
77.0,0.44866076370494234,-0.4166552263377893,0.16894387997536345,-1.0812523939994851,0.19484318284825844,9.571457573861787,0.17484418863412177,-0.07285457968914716,-0.1892558163271682,0.6205160284042358,-0.25853094033896923,0.6907784396409988,0.23924970000982285,-1.6870385563373567,-0.014148165814112872,-2.412127022743225,-7.105875253677368,-13.573875526413321,-29.48812618255615,114.82626051604626,,,,,,,,,,,,,-0.63051834432316,-0.23110991207384826,9.728254922545782,-95.05200332641601,72.57750259399414,-13.63575057029724,0.1641513894669561,-0.07377499900287901,-0.18791111095836668,-0.6309540277253837,-0.2270715107768774,9.74371696472168
78.0,0.1236995270309767,-1.0646036718925922,0.1810604141342758,-0.9670792574099466,0.1714735471588724,9.648114110909257,-0.06157277384772897,-8.154702695584534E-4,0.19336584029663909,0.6279884128287287,-0.26882706980894105,0.6935070168853986,0.20802103971490765,-1.6964375937339102,0.04765783586898948,-2.4437284257152294,-6.093375253677368,-11.46300030708313,-31.18312644958496,110.21774293679296,none,false,false,false,,,,,,,,,-0.8470265124011419,-0.9210088648559416,9.80971809462005,-94.03837890625,74.68687759399414,-15.330000610351563,-0.051715128966607155,-0.004137374511919915,0.18724612411111594,-0.8480658832992806,-0.9132668722310279,9.829813815579556
79.0,0.2968557091243565,-0.7224483685940504,0.6136142396181822,-1.2550229668617248,-0.19664655141532422,9.646785516738891,0.005840345719220615,-0.028070421234732218,-0.037380940290075715,0.6294643676280975,-0.2698346510529518,0.6963020116090775,0.19747359961271285,-1.7013573837280274,0.06357349772937596,-2.4583049273490905,-5.305125176906586,-11.011500426828862,-31.614751396179198,109.14482411501582,,,,,,,,,,,,,-0.9540460827474547,-0.9207475715418263,10.227670268257066,-93.24937805175782,75.13800323486328,-15.760500621795654,0.0064066834194530355,-0.031456187395102315,-0.03899009841134642,-0.9577665434032678,-0.9188850473240018,10.25983696937561
80.0,0.33052538271637305,-0.6921240919287882,0.7071435234564192,-0.9147163997678196,-0.16868869618823132,9.65058209849339,-0.02790705397688221,-0.0033530939259741564,0.1337058152311878,0.6273822059818343,-0.2973120991213649,0.6781727297633302,0.22045160742367015,-1.687691891894621,0.07298823410425992,-2.38017573076136,-6.88837532043457,-8.336625321507453,-31.071376266479493,105.27758110999406,none,false,false,false,,,,,,,,,-0.5838794392195767,-0.8605970977485984,10.357221065783033,-94.83300354003906,77.81437774658202,-15.21900053024292,-0.027336633210946426,-0.006715717513372402,0.13208984888370823,-0.5838794392195767,-0.8605970977485984,10.357221065783033
81.0,0.19538839401517327,-0.44665716761121094,0.6334682000104828,-0.8767606561834161,-0.359360802805785,9.668308855307222,-0.07694877013929334,0.0221267157718174,0.1304591922454682,0.6403163647410846,-0.2897442920942499,0.6799997687339783,0.1911629286378321,-1.6788286560713643,0.11096960735140425,-2.435271140300866,-5.277375206947327,-8.454375294297934,-30.76387638092041,105.59505738938756,,,,,,,,,,,,,-0.6923775362782181,-0.7945710418373346,10.291710476875306,-93.22237854003906,77.69512756347656,-14.911125564575196,-0.08015700471121817,0.02266137353144586,0.1272479978762567,-0.6923775362782181,-0.7945710418373346,10.291710476875306
82.0,0.12433724512927014,-0.15885090604793317,0.32274412946766334,-0.6892971275466504,-0.4869764391332865,9.699011887654219,-0.12423737534773674,-0.010300247966874353,0.06753836516383113,0.6559592892627905,-0.2591744352980415,0.6829969493469389,0.17537437585910948,-1.649169080328233,0.10120005553846459,-2.510165521413973,-4.081500153616071,-10.490625400543212,-29.505001220703125,109.47161412338845,none,false,false,false,,,,,,,,,-0.5646861712448299,-0.6455332016996523,10.021270270394806,-92.02875366210938,75.65700271606445,-13.650000534057618,-0.11351449831854551,-0.010749750807881354,0.06406674942933023,-0.5646861712448299,-0.6455332016996523,10.021270270394806
83.0,0.016068521183915437,0.22585170827805995,0.3208303128927946,-0.8721434295177459,-0.841518534924835,9.647298822402954,-0.021455444284889956,0.01650408384768237,0.04272846604171809,0.6524684512615204,-0.26200495913624766,0.6914600574970245,0.1519942596554756,-1.6741148436069488,0.1325391320651397,-2.5367850828170777,-1.7373750711232423,-10.743000416755676,-32.58675132751465,108.22777679328529,,,,,,,,,,,,,-0.8555880427733064,-0.6154890339542181,9.967622013092042,-89.68012817382812,75.40725273132324,-16.732500591278075,-0.02089183178204711,0.013130568954540362,0.04111113782400395,-0.8555880427733064,-0.6154890339542181,9.967622013092042
84.0,0.11014108746445238,0.14735032325866176,0.7268973849165965,-1.0992247111657087,-0.7370685916393995,9.667094642040777,0.2116383647426299,0.024315717726908992,-0.040866088237392136,0.6476220874225392,-0.24179267824864856,0.7052498722777647,0.1450318618147981,-1.6902531058180565,0.10940308573966225,-2.578207997714772,-4.299375164508819,-14.264250602722168,-33.528001594543454,112.88105507778197,none,false,false,false,,,,,,,,,-0.9886662266856315,-0.5895412039997823,10.393512314441157,-92.24550262451172,71.88562789916992,-17.675250759124754,0.21220334220935802,0.020934034825883584,-0.042482053962453165,-0.9886662266856315,-0.5895412039997823,10.393512314441157
85.0,0.07563078399784494,-0.03343478332061579,0.42557245419167056,-0.8593953644285107,-0.5257477719465843,9.696245703366724,0.05636152011050167,0.0013399502472477216,-0.041732596073701396,0.6566233280861732,-0.21935264485897404,0.7035759834959956,0.14819740555664102,-1.6649855741179815,0.07983999624548682,-2.6098114098652756,-7.00950026512146,-13.441500482559205,-31.821376495361328,112.61647713428934,,,,,,,,,,,,,-0.7902780408039689,-0.5707005274342373,10.13584098815918,-94.95337844848633,72.70912811279297,-15.966750717163086,0.056937134272291086,-0.0020436282251395433,-0.04334619978680184,-0.7833549909588724,-0.5590693336948384,10.12128761971351
86.0,0.18772247028859831,-0.1251999344123472,0.3100986949878164,-1.1696676960085879,-0.9793823978651574,9.511817242839548,0.2615236252825707,-0.023504249341785906,-0.043425249960273506,0.6520785683452492,-0.22077997050958104,0.7064626736216025,0.12941645491536302,-1.688018016295858,0.1055119330533734,-2.628618500020244,-4.154625188112259,-10.546125390529632,-32.32275146484375,108.30907783348795,none,false,false,false,,,,,,,,,-0.9816134136797178,-1.1042673832155985,9.821407889375593,-92.10150314331055,75.60600326538086,-16.468500671386717,0.2620887507777661,-0.02688124978914857,-0.04503399658948183,-0.9816134136797178,-1.1042673832155985,9.821407889375593
87.0,0.3468552688228907,-1.0122357156164576,0.330382783814232,-1.4107278195938262,-0.5798803783658117,9.521402462874308,-0.04051936175856812,-0.0032285544427805672,0.014929535127628376,0.6446156637503369,-0.2357345157773188,0.7088519287581491,0.13365714879024146,-1.7043315998398432,0.11573617834145997,-2.6008755641408485,-3.828375177383423,-9.321375387758017,-34.18125137329102,105.26820810385186,,,,,,,,,,,,,-1.0633842031849492,-1.5917376941392696,9.85130240185426,-91.7718782043457,76.82775329589843,-18.3273756980896,-0.03995184031516021,-0.006620220050179199,0.013311885297298431,-1.0633842031849492,-1.5917376941392696,9.85130240185426
88.0,0.17865136606932278,-0.6931082514750928,0.5452779096984627,-0.9732475456069497,-0.7173599606087687,9.606405239479214,-0.0700160906013876,-0.01592004916971863,0.07209356409488338,0.6540054801632377,-0.2353424910528987,0.6992464392792945,0.14293899993393935,-1.6740361066425549,0.10895548192966803,-2.5904446840286255,-5.007000169754028,-8.622000312805175,-33.31050121307373,104.6702929320958,none,false,false,false,,,,,,,,,-0.7962534990862454,-1.4335352181835044,10.150983135298928,-92.95012802124023,77.5275032043457,-17.45625072479248,-0.05698962399736047,-0.01663612590637058,0.06625437458511442,-0.7962534990862454,-1.4335352181835044,10.150983135298928
89.0,0.17483036552030262,-0.524429062547365,0.6317241216576336,-0.8268854638727585,-0.6811398683521565,9.659448349829947,-0.0789640928828614,-0.0028901960353787037,2.5882217667850795E-4,0.6551857118559355,-0.23700774320871523,0.6955600003204724,0.15592657420599815,-1.6636512314919198,0.09408487591749555,-2.5704625290219147,-4.840125198364258,-9.487875412851572,-32.62425140380859,106.34736056346743,,,,,,,,,,,,,-0.6517426099462231,-1.205199561791845,10.290711870287904,-92.78662857055664,76.66350357055664,-16.774500713348388,-0.07839387014745643,-0.006265686788395339,-0.0013561276901586383,-0.6517426099462231,-1.205199561791845,10.290711870287904
90.0,0.1662607861536683,-0.27539017318072273,0.5820317149673607,-0.8761049140902126,-0.8171753624782843,9.672763011034798,-0.04292178487792463,-0.038013984135693256,0.06543910856552348,0.6573404436017952,-0.23732241140861138,0.6956844791477802,0.1494433039105406,-1.6625379160338758,0.1050859838792616,-2.5801365211898206,-3.9735001635551455,-9.270000312328339,-32.4157515335083,105.88839396026839,none,false,false,false,,,,,,,,,-0.7095000355175751,-1.0923221122619569,10.254290192734961,-91.9185026550293,76.88250305175781,-16.56150068283081,-0.042356807406586,-0.04138886165519309,0.06383403341774599,-0.7095000355175751,-1.0923221122619569,10.254290192734961
91.0,0.2063455044578836,-0.18346908626457056,0.2753311230452976,-1.0045784308452799,-0.6430091870704082,9.621497067538174,-0.17548403417746913,0.010636510650193927,0.13759529782403815,0.6546797782483728,-0.23715726308750384,0.6989526212817491,0.1400447574378264,-1.6756367346253058,0.11526159091259945,-2.591251845311637,-3.248625103533268,-9.411000339984893,-33.42225147247314,105.56044789967218,,,,,,,,,,,,,-0.8057569677083947,-0.8199104381596097,9.897939068256038,-91.19325317382813,76.73850318908691,-17.57100080490112,-0.176004120958969,0.005047625345177949,0.13372150141745806,-0.8057569677083947,-0.8199104381596097,9.897939068256038
92.0,0.14743031509736976,0.02773467643131124,0.46550618829482265,-1.044674565296362,-0.87830910333755,9.606032012712838,-0.05165507963462041,0.04333564250886735,0.007901483782484094,0.658400573942921,-0.2223295053042988,0.7042602094093172,0.12662404001054198,-1.671921409002625,0.11525877375423096,-2.633907188283335,-3.4162501514703036,-11.018250460624694,-33.395626602172854,108.11964373415297,none,false,false,false,,,,,,,,,-0.8968648975945567,-0.8502876604538374,10.071016788482666,-91.36387817382813,75.13200302124024,-17.5451256942749,-0.040061999042518434,0.04186324929818511,0.002224750625900924,-0.8968648975945567,-0.8502876604538374,10.071016788482666
93.0,0.24056006894022744,-0.0670997886226909,0.5947992372335774,-0.7994750378155472,-0.6407419333215987,9.676128453547411,0.08640257334884476,0.012249632094822386,0.020309560603516942,0.6625715175477584,-0.23002053516926152,0.692326566960552,0.1528966130301504,-1.6458617189142963,0.09396801764459008,-2.587660010498349,-7.613250269889831,-10.605750408172607,-33.157126655578615,107.61259382120267,,,,,,,,,,,,,-0.5586015100563222,-0.7077668652049091,10.270463376942248,-95.55637832641601,75.54600303649903,-17.30212585449219,0.08696605431317699,0.008867402734490586,0.018698651927943323,-0.5586015100563222,-0.7077668652049091,10.270463376942248
94.0,0.18130208637711465,-0.05832564706603686,0.7062643975676859,-0.8185194529154721,-0.48148838941044375,9.687704133052453,0.09619826520101564,-0.020460272051098915,-0.0703877481253873,0.6545962381596658,-0.22423050939744593,0.6960659611458871,0.17476692299048105,-1.653074660721947,0.05034350873171991,-2.5647908168680527,-8.741625308990479,-9.690750408917665,-31.103251342773437,107.12131751420117,none,false,false,false,,,,,,,,,-0.6369088559295051,-0.5396853143933649,10.393434295467301,-96.68587936401367,76.46100387573242,-15.24937572479248,0.09234774907119572,-0.024895749688148498,-0.06775312305893749,-0.6369088559295051,-0.5396853143933649,10.393434295467301
95.0,0.1564348603986056,-0.3002638575980569,0.4823967247906298,-0.9456044553530099,-0.15788456177947544,9.6580068474949,0.11828369770527762,0.011783211414391795,-0.13561678789647333,0.6431389108742818,-0.22188703878091112,0.7032902854503972,0.18861485280022763,-1.6727072307378938,0.019964185750831177,-2.548305860840448,-4.985625224113464,-10.678875467777253,-31.83487636566162,108.64803752971017,,,,,,,,,,,,,-0.7887490518889068,-0.45801834483621734,10.13990840345326,-92.92837829589844,75.47100288391113,-15.980250625610351,0.1188512250835843,0.00841445963848017,-0.13723578331444194,-0.7887490518889068,-0.45801834483621734,10.13990840345326
96.0,0.04606349007500445,-0.33114337186128195,-0.15722292456684597,-0.821163570764018,0.07075659932532147,9.734082371580834,-0.016009900875684647,-0.022959777306175173,-0.0144347731107016,0.6424829328761381,-0.22631977279396617,0.7005990492362603,0.20512578417273128,-1.6609189522032644,0.003369917641119922,-2.5200839019289205,-5.518125214576721,-11.918625435829163,-32.62500133514404,109.99376577781248,none,false,false,false,,,,,,,,,-0.7747206281341028,-0.26031618908632037,9.576390154221478,-93.46237823486328,74.2331282043457,-16.772625675201414,-0.015447648223673944,-0.026329208091639057,-0.01604802161916205,-0.7747206281341028,-0.26031618908632037,9.576390154221478
97.0,0.12599194810201592,-0.4433723871808241,-0.12088238719002445,-0.7531685671210289,0.04772230762988329,9.742345447540282,0.015172181742302343,-0.03235833329495554,-0.0045064940829487405,0.6498150897026062,-0.21254201993346214,0.6997481858730317,0.19954739049077033,-1.646483110189438,-0.0030201961239799857,-2.5492432498931885,-6.153000249862671,-12.75637547492981,-31.984876594543458,111.60696180006211,,,,,,,,,,,,,-0.6291237916834284,-0.4037524934138845,9.620728719352496,-94.09837829589844,73.3950032043457,-16.128000774383544,0.011834528352511992,-0.03664715291637153,-0.00227760117832977,-0.6291237916834284,-0.4037524934138845,9.620728719352496
98.0,0.24988835246996113,-0.3754853841428663,0.6996330099509043,-0.9520801708978766,-0.31094349387521836,9.647881629420262,0.1156375003923284,-0.04729863820542203,0.10086373706339019,0.6490178417925742,-0.21723988243177825,0.7020909254457436,0.17777143097391315,-1.6648926501180612,0.03324547877270436,-2.571914927632201,-4.972125198841095,-11.892750358581543,-32.20612621307373,110.06009167821796,none,false,false,false,,,,,,,,,-0.7018456205762192,-0.6862970937554743,10.34700779353871,-92.91562911987305,74.25600296020508,-16.353000717163084,0.11620383385089364,-0.05068032144762502,0.09923960082232952,-0.7018456205762192,-0.6862970937554743,10.34700779353871
99.0,0.21209292119486478,-0.5501600695257582,0.8102695992825055,-0.8416512785571637,-0.22996071318514866,9.662465680943857,-0.10823541157878935,-0.024332107820858557,0.03617058794799389,0.6513303831072137,-0.23713387076807493,0.6926567648897076,0.1788754556143638,-1.657845095832749,0.061573671863995275,-2.5384411953463415,-5.998125262260437,-8.371500328183174,-32.12550132751465,104.82133247282076,,,,,,,,,,,,,-0.6358065254660323,-0.7805415317416191,10.499669008255005,-93.94125381469726,77.7776286315918,-16.271625728607177,-0.10766519768638354,-0.02770624906920335,0.03455294106228679,-0.6292633915384586,-0.7798633979688777,10.472216346476337
100.0,0.19765393801107264,-0.1099709305211459,0.46909572729969967,-0.779468853284817,-0.3465416947803875,9.699446479872902,-0.06006687686778605,0.01721912470180541,0.043334499271586537,0.6491328418844997,-0.2522145146780675,0.6870983661991534,0.19288463300407524,-1.6536356552992717,0.06254936454328938,-2.495423663960825,-5.743125243186951,-7.321125302091241,-31.726501541137694,103.18114077922672,none,false,false,false,,,,,,,,,-0.5735465632474953,-0.47884902510662924,10.171075693451533,-93.68925369262695,78.8287532043457,-15.872625617980956,-0.05950450069271028,0.013844874403439462,0.041717499662190675,-0.5814876526704814,-0.4564633806660255,10.168035596904188
101.0,0.10927636136068031,-0.03154767975211144,0.22383630740921945,-0.7318364068865776,-0.15230960133543703,9.699256296157836,-0.15330160896081735,0.018256188006057304,0.08042388366959473,0.6556323850154877,-0.24048018246889113,0.688534289598465,0.184257390499115,-1.6432608616352082,0.062023785729543306,-2.527329776287079,-4.174875162243843,-8.183625259399413,-31.142626419067383,104.68349639395306,,,,,,,,,,,,,-0.6222495345119387,-0.1838205019570887,9.92262200832367,-92.12137786865235,77.96587814331055,-15.287625751495362,-0.15273390836681766,0.014866336179657443,0.07881200555158724,-0.6222495345119387,-0.1838205019570887,9.92262200832367
102.0,0.22628192240189687,0.00930886562256252,0.46995993052591006,-0.8805174979509092,-0.38840053110456496,9.663477317959655,0.017861384741666885,0.02251324253064571,0.053660397537716543,0.6499549132936141,-0.2590968727188952,0.6876106168709549,0.1787544794234575,-1.6625746734002058,0.09134121662389268,-2.504384664928212,-3.281250137910247,-7.7025002732872965,-31.698001251220703,103.75923244135986,none,false,false,false,,,,,,,,,-0.6539294443221069,-0.3790544272199565,10.132951937469782,-91.22587783813476,78.44775299072266,-15.843750591278075,0.01842500084070581,0.01912883645163314,0.052044432684041485,-0.6539294443221069,-0.3790544272199565,10.132951937469782
103.0,0.2267154950399579,-0.3859962648389363,0.8608640593448931,-1.051396343377557,-0.09438833393304065,9.672510647537685,0.15770171633830257,-0.03297573447172694,-0.03568664277155025,0.6451616718037294,-0.24698824907588487,0.6976446621488817,0.17050699889659882,-1.6804945834792486,0.08092227304298984,-2.5339430606011115,-2.9460001143813135,-9.062250333949924,-31.65637638092041,106.0593141412233,,,,,,,,,,,,,-0.8242752872554973,-0.4803609144274551,10.532890560603377,-90.89025329589843,77.08575317382812,-15.803625679016113,0.15827193211618007,-0.036348529360896234,-0.037305636587096194,-0.8242752872554973,-0.4803609144274551,10.532890560603377
104.0,0.3626936854538964,-0.3283492777423531,0.5918963075268502,-1.0250746251321305,-0.06949764353168361,9.63853307798797,0.1709220256001716,0.010812128557463978,-0.12704727462133264,0.6486835690105662,-0.21885616587949733,0.7025808423173194,0.16921118690687068,-1.6727684257077235,0.04664916419720862,-2.58000841327742,-2.217000070661306,-10.544250378459692,-31.385626220703124,108.58929281251083,none,false,false,false,,,,,,,,,-0.6619823850581751,-0.3977956138551235,10.229906376670389,-90.16125289916992,75.60487731933594,-15.530625648498535,0.1715006197452324,0.007433168507079676,-0.12865371285651875,-0.6619823850581751,-0.3977956138551235,10.229906376670389
105.0,0.19553381993551738,-0.35185445308685304,0.05892112178262323,-0.8120125684142113,-0.3555855746567249,9.630249614715575,0.13848291979272767,-0.013559405498280384,-0.07563997299806906,0.6554285442829132,-0.2084824300557375,0.7023285609483719,0.1612756696343422,-1.6599857425689697,0.04692391446093097,-2.607488923072815,-3.4683751380443573,-11.746500512808561,-31.576126556396485,110.2361472622614,,,,,,,,,,,,,-0.6161190304532647,-0.7073220374435186,9.68866099357605,-91.4137533569336,74.40412841796875,-15.722250633239746,0.1390438109894495,-0.016942450278761362,-0.07725185502578716,-0.6161190304532647,-0.7073220374435186,9.68866099357605
106.0,0.24122483124679858,-0.515635395551672,0.24365890007650498,-0.9281749896483846,-0.523660976790113,9.666584949682255,-0.053938500806689264,-0.0690305001474917,-0.025481501519680025,0.6511356240451927,-0.22588594973382384,0.7016987912725694,0.1618804158550678,-1.6696994646941081,0.06715682725707936,-2.5800876074498245,-3.6618751645088197,-9.501000436544418,-31.803376541137695,106.69266932774444,none,false,false,false,,,,,,,,,-0.6866807295931595,-1.039004014611318,9.9097846947094,-91.60575317382812,76.64662826538085,-15.948750686645507,-0.053366499729454515,-0.07240474993828684,-0.027102625854313375,-0.6866807295931595,-1.039004014611318,9.9097846947094
107.0,0.30731291967527113,-0.7034743276267948,0.6690605441016135,-0.8600170205135157,-0.05244280196873859,9.664924621582031,-0.02902732639774388,-0.042749019736862355,0.11440808563401886,0.6537647312230402,-0.20997765261938076,0.7020444663444368,0.16761452490740483,-1.6598384982288474,0.03941867671593433,-2.596423342676446,-5.013000178337097,-11.114625374376773,-31.70925117492676,109.26638187843075,,,,,,,,,,,,,-0.558601526748389,-0.7442490359395743,10.358175497055054,-92.95950317382812,75.03487770080567,-15.85462558746338,-0.028457106821531176,-0.04614203411391845,0.1127890934254609,-0.5523980462573247,-0.755682214283117,10.333519803415431
108.0,0.21542681271539016,-0.6894509169460256,0.6241081268689253,-0.6937601200424799,-0.19053434792647858,9.706742447201568,-0.11189232667041298,-0.007399133710873009,0.10408069350120455,0.6592974922444561,-0.2059123155356634,0.7018133041882278,0.14792927738168452,-1.6581697345960258,0.06405545647329844,-2.629893142398041,-4.717125154733658,-10.34362544953823,-31.703626174926757,108.0144636591922,none,false,false,false,,,,,,,,,-0.47557796765228405,-0.866142686383397,10.330462198631436,-92.66212768554688,75.80850280761719,-15.850125617980957,-0.09892300456762314,-0.009249626016244293,0.09700349967926741,-0.47557796765228405,-0.866142686383397,10.330462198631436
109.0,0.2260940891061218,0.019594387842877075,0.4071858283316735,-0.6232754182815552,-0.5343949817679823,9.686887321472168,-0.12870808616828391,-0.023281984551645377,0.07853676468206972,0.6633468276262283,-0.22339864060282708,0.693412224650383,0.15321783915162088,-1.6440404760837555,0.08472418588527944,-2.5973521304130553,-5.321250209808349,-8.79675029873848,-31.989376525878907,105.2180143237152,,,,,,,,,,,,,-0.39573120828349106,-0.5001906209652967,10.094167312773147,-93.26550323486327,77.35575317382812,-16.13100067138672,-0.11752710381688752,-0.024744555819779634,0.07011002500882686,-0.39573120828349106,-0.5001906209652967,10.094167312773147
110.0,0.12264680145308375,0.49516353342682123,0.27828611541539433,-0.6640725370277377,-0.8538049046388444,9.702066991843429,0.08183312362059951,0.053690999397076666,0.021212124172598122,0.6574028462171555,-0.23490972995758055,0.6947467756271363,0.16281377896666527,-1.653519104719162,0.08302686960902066,-2.5662343454360963,-6.015000259876251,-9.018750324249268,-31.974001312255858,105.68239982418994,none,false,false,false,,,,,,,,,-0.5528985447812789,-0.36007130335518484,9.9748163176055,-93.95887741088868,77.13037811279297,-16.119750747680666,0.06811750095337629,0.04988774952478707,0.03145724732428789,-0.5395875295996666,-0.3610815162723884,9.980413975715637
111.0,-0.05295636195062411,-0.4120134261648844,0.36112358118637955,2.894236921563302,2.6170468767090598,8.058119223849609,-0.4082860295094696,1.0755775632911964,-0.3548470592792785,0.7356933851053219,-0.020959089212188736,0.5714955741521155,0.2907779507412769,-1.217876394196312,-0.28660568967461586,-2.595155409066984,-15.261000595092774,-22.56862590789795,-11.29762554526329,160.7583890856081,,,,,,,,,,,,,2.841038769977813,2.204600595343526,8.41874889808126,-103.20600387573242,63.58237785339355,4.556250215768814,-0.40772524172914965,1.072193986110791,-0.35646065838141916,2.841038769977813,2.204600595343526,8.41874889808126
112.0,-0.5951167145921361,-0.12839254905425368,-0.009407521339566995,8.819172813778831,2.427327422868638,3.501648772330511,-0.011828273401728697,0.1987726195338404,0.013432439971005633,0.8987386169887724,0.08501292960274787,0.21640940471774056,0.3713860667887188,-0.35038485697337557,-0.3190784759464718,-2.4148520628611245,-28.008036931355793,-18.305357978457497,24.73750096275693,233.47436936392694,none,false,false,false,,,,,,,,,8.223546868278866,2.2984786743209478,3.491775149390811,-115.95268249511719,67.84732455299014,40.59107280912853,-0.011261905543506145,0.1954005916181597,0.011815178806760482,8.223546868278866,2.2984786743209478,3.491775149390811
