seconds_elapsed,accelerometer_z,accelerometer_y,accelerometer_x,gravity_z,gravity_y,gravity_x,gyroscope_z,gyroscope_y,gyroscope_x,orientation_qz,orientation_qy,orientation_qx,orientation_qw,orientation_roll,orientation_pitch,orientation_yaw,magnetometer_z,magnetometer_y,magnetometer_x,compass_magneticBearing,network_type,network_isConnected,network_isInternetReachable,network_isWifiEnabled,network_isConnectionExpensive,network_ssid,network_bssid,network_strength,network_ipAddress,network_frequency,network_cellularGeneration,network_carrier,totalAcceleration_z,totalAcceleration_y,totalAcceleration_x,magnetometerUncalibrated_z,magnetometerUncalibrated_y,magnetometerUncalibrated_x,gyroscopeUncalibrated_z,gyroscopeUncalibrated_y,gyroscopeUncalibrated_x,accelerometerUncalibrated_z,accelerometerUncalibrated_y,accelerometerUncalibrated_x
0.0,0.26412185989729653,0.30456460475061947,0.11352523291422116,8.868516513279506,3.4926316842928036,2.1523490901831743,-0.5890263384308225,-0.5297180060096967,0.019912365833998368,-0.3222671658783169,-0.15709602136860837,0.15979831985064916,0.9163934182334732,-0.20297770795750095,-0.4088567881793766,0.6334918052940578,-40.9744580310324,12.970924522565758,-31.436414221058723,66.88166891547012,,,,,,,,,,,,,9.118043909902157,3.7986653965452444,2.2631039118961147,-49.44130623858908,-3.2453805713549904,21.204620402792226,-0.5875165694312233,-0.5334551637263402,0.015467255092833353,9.118043909902157,3.7986653965452444,2.2631039118961147
1.0,0.5910164504996774,-1.3231542206405862,-0.44175875547122867,0.8772831772472344,8.140280438404456,-2.8767539193378946,-1.033462240812507,-0.2836284605961404,1.255355934547906,-0.5924315887923334,-0.4050920697696069,0.5090654236721057,0.4086847141677258,1.1905471163016617,-1.0268806552185732,-1.1002981610157911,3.3978750610351565,-32.46187622249126,-15.743625621795655,153.23666895696894,,,,,,,,,,,,,1.4684089077453988,6.816654714883542,-3.3182854680344462,-5.068500252962113,-48.679501953125,36.89887638092041,-1.0320205394510586,-0.2878787095732249,1.2537413209234134,1.4684089077453988,6.816654714883542,-3.3182854680344462
2.0,0.22765907982757919,-0.12592091872402938,0.3229649387631971,-2.105257260327292,7.932519596402008,-5.270173521325139,-0.10348896965767969,-0.052808088830252196,-0.12338602825469684,-0.6055830764770508,-0.48334516525268556,0.5963570773601532,0.20471241936087609,1.9071944618225098,-0.9771993893384934,-2.502915234565735,23.395125846862793,-35.34037628173828,-0.8531250400096178,178.53223224647172,none,false,false,false,,,,,,,,,-1.8773109847126472,7.806160804068688,-4.946664568221215,14.928375568389892,-51.55800254821777,51.790502090454105,-0.10256683145013482,-0.058550495207125304,-0.12989938063639225,-1.8773109847126472,7.806160804068688,-4.946664568221215
3.0,-0.11931654950603843,-0.10264892730058409,0.06302317498029522,-1.4725405522713475,7.434523058872597,-6.144449378929886,-0.060331187930216294,-0.0037506191189041233,0.04537363780090715,-0.6312062600079704,-0.43928928731703293,0.6161564419082567,0.16390821549530124,1.7960800014290155,-0.8589193528773738,-2.6046151390262677,19.83787582397461,-36.976501541137694,3.62662513256073,185.61094227888287,,,,,,,,,,,,,-1.5915633161762255,7.331415045495127,-6.080904708189123,11.368125400543214,-53.19225227355957,56.27100212097168,-0.058892203582506075,-0.007998143166008562,0.04376448012224519,-1.5915633161762255,7.331415045495127,-6.080904708189123
4.0,0.016627011578622283,-0.6138351183836487,0.34034227432295827,-1.370421600813913,7.488226545919286,-6.113058600095239,-0.08854865198315796,0.012077083007669916,0.10923970590674263,-0.6349933477911619,-0.4566987032937531,0.6101303920887484,0.1229701585108691,1.8098994918388895,-0.8178955487685629,-2.5143471850026953,19.897500762939455,-36.4376261138916,5.845125255584716,189.15544140229997,none,false,false,false,,,,,,,,,-1.3534307559896814,6.873921101636226,-5.7722572005621275,11.42887544631958,-52.654877166748044,58.48687744140625,-0.08711029390128804,0.007824019926107106,0.10763149519962277,-1.3534307559896814,6.873921101636226,-5.7722572005621275
5.0,0.011995452930968181,0.006079339910773378,0.15447473160776437,-1.4614395616101283,6.614738436306224,-7.0492075377819585,0.012402227678622054,-0.03192994919245933,-0.003350370715713442,-0.6443957680580663,-0.42917732660676916,0.6266504812474344,0.08715102032703512,1.7778648360102784,-0.7238824507769417,-2.537257344115014,20.260875701904297,-34.71862640380859,12.047625465393066,199.14625564420345,,,,,,,,,,,,,-1.4489868293498076,6.620301784253588,-6.894213564255658,11.795250511169433,-50.93550254821778,64.68937835693359,0.013838490724821788,-0.03617747458583205,-0.004959530372283246,-1.4489868293498076,6.620301784253588,-6.894213564255658
6.0,0.05603015302407621,-0.02427585633716198,0.051175692372701385,-1.4483021861314773,6.724949245452881,-6.953132629394531,0.014347647584163317,0.010539851575573482,0.009049133729595359,-0.6505143082503116,-0.4428125734281058,0.6096937963456819,0.09207204021889755,1.7596268063843852,-0.7593881421618991,-2.523129607691909,20.617500839233397,-34.562251586914066,10.363875436782838,196.72470903160013,none,false,false,false,,,,,,,,,-1.3871956140835686,6.709524093288006,-6.93951417431973,12.148875484466553,-50.77762741088867,63.007502746582034,0.0133622495085001,0.0021944996062666176,0.011086624767631292,-1.3841370699554683,6.697408828735352,-6.895819811820984
7.0,0.19469890182874366,-0.12811273122254838,0.021925154580351186,-1.5610236128171284,6.880217271692612,-6.760160684585571,0.010863862295478288,0.04623675812035799,-0.06275990045177612,-0.6523392299811045,-0.45256482210813787,0.5996960424909404,0.0967347345077524,1.7548832834935655,-0.7846867740154266,-2.51143763813318,21.096375617980957,-35.197126388549805,10.531500396728516,196.66589353385655,,,,,,,,,,,,,-1.3659471175724678,6.7515767976349474,-6.737663544860541,12.628875484466553,-51.414752349853515,63.17550224304199,0.01230692993941726,0.04198514896970574,-0.06437722737393757,-1.3659471175724678,6.7515767976349474,-6.737663544860541
8.0,0.19485863249306337,-0.37302916150281923,0.45044346692243425,-1.4890331314636929,6.986656510003723,-6.648584285585007,0.005717034506447175,-0.06620624813470333,-0.051892769833405815,-0.6514031462150045,-0.4484021799399121,0.6017245520459543,0.1090547027121676,1.7543384202636114,-0.7969208153167574,-2.534745145552229,19.898250923156738,-35.93025154113769,10.926000480651856,196.86102825037042,none,false,false,false,,,,,,,,,-1.294017384916839,6.613136447302185,-6.197634918854968,11.433000469207764,-52.14450241088867,63.570002975463865,0.0071540440240984455,-0.07045796582037035,-0.053513113085144,-1.294017384916839,6.613136447302185,-6.197634918854968
9.0,-0.018208721518235774,-0.03412604149415012,0.06329435506817319,-1.2355374070067031,7.015870889027913,-6.704889951967726,0.04876757365199599,6.534668644613559E-4,0.0447691833683391,-0.6636179872587615,-0.45788323440972495,0.5824794395297181,0.10077684343445535,1.7145538330078125,-0.81158301467989,-2.52147409027698,20.292750816345215,-35.57850173950195,12.036375465393066,198.69512646903024,,,,,,,,,,,,,-1.2533294685805838,6.981207688649495,-6.641097353953941,11.824500484466553,-51.795752334594724,64.6803776550293,0.05021744999702614,-0.0035926982631335164,0.043157301584977915,-1.2533294685805838,6.981207688649495,-6.641097353953941
10.0,-0.029586813833315552,-0.024478971515551652,-0.16505680749617,-1.5362798848954757,7.314006413563644,-6.30702816141714,0.030279656561712425,-0.06200171562879547,0.03677450972791834,-0.6535912716742789,-0.49650209817555874,0.5624673407856781,0.08833840544713606,1.7658583999860404,-0.847622271221463,-2.405690863580987,21.30300075531006,-35.66625129699707,9.878625392913818,195.4977090890494,none,false,false,false,,,,,,,,,-1.5654357302897046,7.289098890701143,-6.471557265461081,12.834750499725342,-51.88200225830078,62.52300239562988,0.03171801414139861,-0.06625343048397232,0.035163603485653214,-1.5654357302897046,7.289098890701143,-6.471557265461081
11.0,-0.13131025557716688,-0.4326854493861616,0.1599993927962429,-1.5001464830894096,7.486892779668172,-6.112509694753909,5.109071247644868E-4,0.004697917371659595,-0.012632474650208857,-0.655329764473672,-0.5189666076033723,0.5425888200600942,0.08004099999864896,1.7718633027637707,-0.8744149278191959,-2.3447799682617188,21.729000701904297,-34.94700149536133,8.814750356674194,194.15338780639337,,,,,,,,,,,,,-1.630958908328823,7.053697389714858,-5.95201356270734,13.263375549316406,-51.16462699890137,61.458376998901365,0.0019506125290896378,4.4485366464976E-4,-0.014247425923160478,-1.630958908328823,7.053697389714858,-5.95201356270734
12.0,0.11796343061780813,-0.39310188920182343,0.36718263006403895,-1.2443662636420305,7.484984065972123,-6.168313087201586,-0.022329455324550076,0.011341707877777886,0.05563168361838354,-0.6604844419395223,-0.5078523775526121,0.5465142721054601,0.08248764641729056,1.7468097817664052,-0.8649841061994141,-2.3824847679512176,19.78012586593628,-35.44687662124634,9.05325031042099,194.111761670481,none,false,false,false,,,,,,,,,-1.1260529861091544,7.09137531822803,-5.800570861966002,11.311500425338744,-51.66225215911865,61.69837730407715,-0.019025874873623252,0.005992250582203269,0.05235174954403192,-1.1260529861091544,7.09137531822803,-5.800570861966002
13.0,0.027533703031811383,-0.09068386164484638,0.08704637420723343,-1.232929818110891,7.183026313781738,-6.515891981596994,0.021071201144699372,-0.04215183717143886,0.020282598353885843,-0.6658598432446471,-0.5025825650975255,0.5467700297289556,0.06766410861717592,1.7265696112472233,-0.8381030701174594,-2.3832581491753606,21.062625808715822,-34.66612632751465,12.275625514984132,199.50930016934228,,,,,,,,,,,,,-1.2049946148169808,7.091819154153956,-6.428364689987485,12.595500507354735,-50.882627182006836,64.91850257873536,0.022518994825362574,-0.04640085764192775,0.018652818754644078,-1.2049946148169808,7.091819154153956,-6.428364689987485
14.0,0.046841342901518826,-0.02974724044621575,-0.052760638856424895,-1.2128439247608185,7.193551848916447,-6.511208277122647,0.01185222710989932,0.025673019898004166,-0.02999678284556854,-0.6714490879984463,-0.5117294969511967,0.5323267076529709,0.059900106825664934,1.7088476898623448,-0.8496560045317108,-2.3609091440836587,23.270625872612,-33.877126388549804,11.474250497817993,198.3221594039813,none,false,false,false,,,,,,,,,-1.165655942232001,7.163281235040403,-6.5634723714753695,14.801250581741334,-50.094002151489256,64.11712745666505,0.0132966589016637,0.021429579133296957,-0.031607302021013924,-1.165655942232001,7.163281235040403,-6.5634723714753695
15.0,0.11421493070498616,-0.050940954227848806,0.008398047694475344,-1.083619757453994,7.446433393081816,-6.253950237047555,-0.03310379904567027,0.04587242629506862,-0.022035048498461645,-0.6706636819508996,-0.5176433997579141,0.5252674522966442,0.07694004044526874,1.710826847812917,-0.8873620682423657,-2.368883508266789,26.802001190185546,-36.42262649536133,8.678625383377074,193.4535981509866,,,,,,,,,,,,,-0.9690743087154656,7.395007785003965,-6.245079522085662,18.333000717163085,-52.64025215148926,61.32000205993652,-0.034192573979939564,0.03826448012438446,-0.022181064821779728,-0.9690743087154656,7.395007785003965,-6.245079522085662
16.0,0.20966701128254142,-0.40170660248373213,0.3025015176310405,-1.5006655665004955,7.346480986651252,-6.278203632317338,0.03485965366834904,0.03477933245830902,0.00129740101995297,-0.6612728010205662,-0.5139705305005989,0.5402802971063876,0.07953442121837653,1.7464638153711955,-0.8722288906574249,-2.365733887635025,36.52087646484375,-36.84075149536133,9.558000373840333,194.56987929334124,none,false,false,false,,,,,,,,,-1.2905971264357077,6.944256188822727,-5.975195901066649,28.051501159667968,-53.05762725830078,62.20050231933594,0.03629727643628669,0.030529083776296956,-3.1039576129157946E-4,-1.2905971264357077,6.944256188822727,-5.975195901066649
17.0,0.00440907908603549,-0.15296030342578887,0.19771326165646314,-1.7869055449962616,7.532320685386658,-5.982101998329163,0.04320358834920986,-0.0343014853268788,-0.009119926204923356,-0.654203764796257,-0.5349598842859268,0.5277882951498032,0.08243243932724,1.7834698522090913,-0.906294874548912,-2.3064481472969054,35.84287635803223,-25.97587604522705,12.041250534057617,204.97816504944643,,,,,,,,,,,,,-1.7737233494915585,7.362191946199625,-5.773039869742818,27.377251014709472,-42.193501510620116,64.68450317382812,0.04463848966810078,-0.038547647374654465,-0.010750866430525733,-1.7737233494915585,7.362191946199625,-5.773039869742818
18.0,0.02603422984997235,-0.014241497152217545,-0.03970665414817631,-1.5920432941748364,7.419405889983224,-6.179935214543106,0.0033231433573188167,6.548268582192388E-4,-0.019625743408456887,-0.6545352711535917,-0.5379797338259102,0.5254470021417825,0.0740829510706486,1.783919870263279,-0.8982530891305149,-2.289392067654298,25.36275104522705,-23.31862594604492,8.478000335693359,200.14739486654256,none,false,false,false,,,,,,,,,-1.5785912482396645,7.409637119255814,-6.230603232103236,16.894875602722166,-39.53550155639648,61.122377243041996,0.00793512472882867,-0.005145249874331057,-0.01879074975848198,-1.565606506412277,7.4046241174830065,-6.219123557062432
19.0,-0.09175511830952018,-0.1549691467359662,-0.013932122774422169,-1.4359022408428759,7.503671362848565,-6.104997337454616,-0.03981164110112278,-0.020670833705248786,-0.036878308678484135,-0.6605975374136821,-0.5183635672720353,0.5345902826526377,0.09382317849610111,1.7483622355036217,-0.9031538544314923,-2.372620887095385,20.277375717163086,-31.77412643432617,3.1136251270771025,185.51170187173392,,,,,,,,,,,,,-1.5234149254047045,7.3378191702436695,-6.099990887217002,11.810250434875488,-47.99137680053711,55.759877395629886,-0.03837058828303627,-0.02491715668664113,-0.03849191237332336,-1.5234149254047045,7.3378191702436695,-6.099990887217002
20.0,-0.005186140122316261,-0.569077880444503,0.3493398111498002,-1.3475890507792483,7.361873810834224,-6.286289824117528,0.034021039350456236,-0.013582549057900906,0.0857455446845898,-0.6603775626304103,-0.5096874719156939,0.5438131754304848,0.08685389197632379,1.7468962891429078,-0.874930062714745,-2.3834507348490694,22.36425090789795,-34.04287658691406,6.632250280380249,191.049944982246,none,false,false,false,,,,,,,,,-1.358567712189374,6.789948846779618,-5.921064977552376,13.895625629425048,-50.26012763977051,59.275502395629886,0.03404912451282144,-0.015577375032007694,0.0842407497484237,-1.358567712189374,6.789948846779618,-5.921064977552376
21.0,0.1673018322925609,-0.006855654723868512,0.22882054417882816,-1.2856502231985036,7.523745475429119,-6.118382689976456,0.02784914133485918,0.0038149511742898647,-0.0050308827182971964,-0.6660276846130295,-0.5212240744345259,0.525847862852682,0.08920488115584496,1.728531765465689,-0.9080076778289115,-2.3690242318823787,24.232501068115234,-33.50512641906738,5.844000227451325,189.90011533497872,,,,,,,,,,,,,-1.1179693571780578,7.516374130060177,-5.88905670383189,15.766125602722168,-49.721627197265626,58.48687713623047,0.02929424012408537,-4.381132677343546E-4,-0.006647181943716372,-1.1179693571780578,7.516374130060177,-5.88905670383189
22.0,0.08224299095460388,0.05243309362477964,0.05127345313235085,-1.2271893455250429,7.530192984212743,-6.108364553734807,-0.001251250240020454,-0.01540962494444102,0.043064998826012016,-0.6655847170565388,-0.5166748372635038,0.5303850557544444,0.0908760986853354,1.7276012083091359,-0.9012762355332328,-2.3816012203103245,19.717125816345217,-36.11775146484375,1.323000053614378,182.1113396999266,none,false,false,false,,,,,,,,,-1.1325510532408953,7.600819854736328,-6.062533779144287,11.251125497817993,-52.33537719726562,53.967752609252926,1.952507020905614E-4,-0.01966525031719357,0.041449374170042574,-1.1446144091758397,7.582137976542557,-6.056568098540353
23.0,0.12604343521842123,-0.11187557812485069,-0.061245376188861264,-1.4376416271275814,7.439948676836373,-6.1883842921493075,-0.024758088434407233,0.07907867635253306,-0.05167573475388482,-0.6581013167258536,-0.5253952346225776,0.532211435313272,0.08171989145402861,1.7628249024400617,-0.8933348655700684,-2.3357874025212655,22.190625839233398,-36.17662651062012,4.445250172615051,187.04128305072365,,,,,,,,,,,,,-1.3111470950638304,7.32761021887902,-6.24911912597052,13.723125534057617,-52.391252212524414,57.090002365112305,-0.02330894608452332,0.07482291664471667,-0.053292033792126416,-1.3111470950638304,7.32761021887902,-6.24911912597052
24.0,0.23265043268546315,-0.4313866743343134,0.32201418614781957,-1.2858165654481626,7.513926440594243,-6.110468971963022,-0.020985767743227506,-0.048315593968191656,-0.03847004908441317,-0.6659495199427885,-0.5229885496345221,0.5251986518794415,0.08156502970001277,1.7316043914533128,-0.8982269839913237,-2.3537821839837467,20.558250732421875,-37.2135018157959,5.437500205039978,188.28619064080803,none,false,false,false,,,,,,,,,-1.0529118163383329,7.0820915325015195,-5.78792671362559,12.090750350952149,-53.4300023651123,58.081501998901366,-0.019552226639398845,-0.05256311872070379,-0.04008737604345868,-1.0529118163383329,7.0820915325015195,-5.78792671362559
25.0,0.007921580653637648,-0.1068721641972661,0.22814981043105945,-1.2347867804588657,6.98980439063346,-6.714914893159772,-0.002174386631368714,-0.025759681301447106,-0.0037610299437872917,-0.6733560258150101,-0.5116446852684021,0.5308235025405884,0.050768399126827714,1.7025288379192351,-0.8375243139266968,-2.351510350704193,19.651500587463378,-36.24525177001953,9.554250335693359,194.77080301787515,,,,,,,,,,,,,-1.2261386753456427,6.881574078361587,-6.476816149041204,11.182500467300414,-52.46175239562988,62.199752502441406,-0.0030917089091300376,-0.027885271886382068,-0.006590469657342032,-1.2261386753456427,6.881574078361587,-6.476816149041204
26.0,0.017835236117974215,0.025025217191261405,-0.052043334334431327,-1.325992840762232,7.241897994396734,-6.437608845093671,0.04439752346531737,-0.005323019141497293,0.0044530940398868945,-0.6703608784021116,-0.5209176376754162,0.5247782287644405,0.05863039232060021,1.7158150450856078,-0.8634273070915073,-2.336663575733409,20.398125801086426,-35.14125160217285,9.925500411987304,195.77921220017024,none,false,false,false,,,,,,,,,-1.3078044689324337,7.266441541559556,-6.489092960077174,11.931000576019287,-51.357752304077145,62.56837745666504,0.045841954699210305,-0.009574629301850749,0.002833044534493791,-1.3078044689324337,7.266441541559556,-6.489092960077174
27.0,0.05732991062926457,-0.06952767384548982,8.791386898533971E-4,-1.4762115776538849,7.38252927275265,-6.227582314435174,-0.01694350458645061,-0.006388357753737592,0.03262524418167624,-0.6602738160713046,-0.5296509423676659,0.5270917462367638,0.07249846020896061,1.7572797244670344,-0.8878504698183022,-2.317782857838799,22.078500900268555,-34.28700141906738,7.894500341415405,192.99536860977452,,,,,,,,,,,,,-1.4184736009029781,7.3125047356474635,-6.226170881121766,13.610250587463378,-50.505002365112304,60.537377243041995,-0.015493014466711412,-0.010638725076455111,0.03101433810376215,-1.4184736009029781,7.3125047356474635,-6.226170881121766
28.0,-0.12900410647421043,-0.5469761203494993,0.2165354495005922,-1.4696950605600188,7.572539395625048,-6.018480919375278,0.01979325890230636,-0.0038877458211180626,-0.007031372638747972,-0.6549375322785708,-0.528078552519921,0.533195407083719,0.08667529684187163,1.7767611954471854,-0.9017361166453598,-2.3300987375844824,24.85162612915039,-34.03237670898437,7.14862530708313,191.8553448522094,none,false,false,false,,,,,,,,,-1.5982471022542823,7.025024607630059,-5.801483461172274,16.383750648498534,-50.24962699890137,59.79337738037109,0.02123026951106594,-0.008132720174377455,-0.008654411183670163,-1.5982471022542823,7.025024607630059,-5.801483461172274
29.0,0.11510078597005785,-0.29757420722322137,0.3325807447362618,-1.2262696267343034,7.610247195935717,-6.017353609496472,0.01524344046074565,0.020944926196174458,0.023034653239099697,-0.6624350051085154,-0.5240902889008615,0.5277295287917642,0.08769430402739375,1.7443648588423635,-0.9057266466757831,-2.3541490821277393,24.03037612915039,-35.95200172424316,6.513750286102295,190.29610916150668,,,,,,,,,,,,,-1.1108147581427485,7.312160622839834,-5.684263523887186,15.561000671386719,-52.16850242614746,59.15962760925293,0.016683787282666947,0.01669331786158209,0.021424133621045564,-1.1108147581427485,7.312160622839834,-5.684263523887186
30.0,0.09448461389482611,0.014754326815836796,0.13364052624985723,-1.259248980791262,7.511523039034097,-6.135568170264216,0.02335477991979204,0.017702450733814462,-0.01011838257659738,-0.6622373992853826,-0.5164125296148924,0.5341450932002304,0.09580134688922674,1.74038565512931,-0.9047975357216184,-2.3828636018356475,22.83187587738037,-35.29387672424316,6.100125250816345,189.79165964782027,none,false,false,false,,,,,,,,,-1.1643342106132815,7.525763218945796,-6.001434921038033,14.363250541687012,-51.51037712097168,58.74300224304199,0.024791789537880058,0.013449387784645545,-0.01173602916555954,-1.1643342106132815,7.525763218945796,-6.001434921038033
31.0,0.04315749078295102,0.037257117931457126,0.050758047047637256,-1.3164805916010165,7.705753672356699,-5.882896605659933,0.018689108205645687,0.016917945157810307,-0.01448787125934026,-0.6540943360796162,-0.5222284653607536,0.5357876700513503,0.11051442189251676,1.7724564402711158,-0.9300859763341791,-2.37391841879078,22.201500701904298,-36.81262649536133,1.0117500449717045,181.63813968786724,,,,,,,,,,,,,-1.2729206590401922,7.742512146631877,-5.8315972977993535,13.733625564575195,-53.02875221252442,53.65575210571289,0.020130817464893997,0.012663613470031483,-0.016106559360160096,-1.2729206590401922,7.742512146631877,-5.8315972977993535
32.0,0.06967945555386383,-0.08255447628031863,0.09896284609221585,-0.967990514665547,7.553241701409368,-6.131328719677311,-0.03919558732441681,0.023593382147487765,-0.03176250045333861,-0.6680874098645578,-0.504643323692945,0.5361274209353003,0.10498183161610423,1.7100391907267052,-0.9057473611123491,-2.432167952603633,18.46012575149536,-40.16812644958496,2.41800009816885,183.39873343728996,none,false,false,false,,,,,,,,,-0.8981064823133373,7.4702157266069165,-6.031893845831994,9.991500406265258,-56.38612724304199,55.061627502441404,-0.037750490425227615,0.01933492721040167,-0.03338014638946191,-0.8981064823133373,7.4702157266069165,-6.031893845831994
33.0,0.1703862857128329,-0.33189114463040786,0.054677543231496116,-1.2559221229132485,7.613015810648601,-6.010497630811205,-0.018950495965741943,-0.015668192431146262,0.0059370043281797725,-0.6650554748142466,-0.5187700028512993,0.5272678265384599,0.10122763708818193,1.7286721947146397,-0.9220233086277457,-2.389076225897845,16.734750709533692,-39.63487663269043,5.419875230789184,187.79838628170208,,,,,,,,,,,,,-1.0852088768208654,7.280590048023298,-5.95530324122485,8.268375310897827,-55.85175224304199,58.06387702941895,-0.017506063938841666,-0.019918440333982504,0.004325123337825926,-1.0852088768208654,7.280590048023298,-5.95530324122485
34.0,0.08338039538518775,-0.2940192332878561,0.4076764362652113,-1.1454987018415244,7.654237492249743,-5.984796014162574,0.03588749995619497,0.02856899554585563,-0.05932720511348224,-0.6642374077645858,-0.5104249886947103,0.5352426672926044,0.10672811809742805,1.7264477368628626,-0.9147369719967984,-2.4154967105034553,16.257375640869142,-36.96900123596191,6.187875266075134,189.50667810055174,none,false,false,false,,,,,,,,,-1.0617847031185237,7.3597310651646985,-5.576627476380603,7.788750314712525,-53.18475234985352,58.83187721252441,0.037324509355148264,0.024318627255293084,-0.060944852537895534,-1.0617847031185237,7.3597310651646985,-5.576627476380603
35.0,-0.02836313614092183,-0.20251656623155462,0.1412526842973688,-1.0737683404894436,7.831822264428232,-5.769290166742661,0.05711014859267686,0.042943564515634636,-0.014487871061088425,-0.6622010808365018,-0.5142018795013428,0.5309861629616981,0.12152446097895211,1.7301206132944893,-0.9445625081950543,-2.424309015274048,18.2696258354187,-36.08100151062012,4.833375174999237,187.6357269158174,,,,,,,,,,,,,-1.101776526638252,7.628810672199025,-5.627501733162823,9.802875356674194,-52.29675224304199,57.47925224304199,0.05855321710800181,0.038690594444512436,-0.01610247535852365,-1.101776526638252,7.628810672199025,-5.627501733162823
36.0,-0.03107126849924795,0.019262127928657106,-0.009619096386255604,-1.1143964467072252,8.171370836767819,-5.259182457876678,0.02271985268110738,-0.018629902713548613,-0.027493259495160745,-0.6599834661672611,-0.5161103972113958,0.522674277867421,0.15574424809748583,1.7208483407993127,-1.0056763562825646,-2.4672288516960523,17.783250732421877,-36.91350143432617,-0.14512500092387198,179.7711303333923,none,false,false,false,,,,,,,,,-1.1451163983876163,8.19015630401007,-5.268368584094661,9.312000379562377,-53.131877212524415,52.49850212097168,0.024156862513764817,-0.022882966046203292,-0.029108209855051016,-1.1451163983876163,8.19015630401007,-5.268368584094661
37.0,-0.03147836944873573,-0.15101643140409507,-0.07795990265759767,-1.011124470508566,8.124935131446987,-5.3386055768704885,-0.0540511140710499,-0.016926113848048863,0.008881682940380702,-0.6559205359103633,-0.5046049102264292,0.5363816426080816,0.16434707828596526,1.7279192770228666,-0.9946403176176781,-2.5000761186375335,17.701500568389893,-37.27800148010254,-0.5928750242292881,179.0906551686821,,,,,,,,,,,,,-1.0423824077930903,7.973416562173881,-5.416053176510568,9.234375429153442,-53.49600227355957,52.04887733459473,-0.052608043942047225,-0.021177723487414937,0.0072684404762959716,-1.0423824077930903,7.973416562173881,-5.416053176510568
38.0,-0.161421594772451,-0.33979393209856334,0.19701643760251528,-0.8923046417755656,8.128423615257338,-5.355088200899634,0.05484632290808447,-0.08411629886969048,0.05151801362323264,-0.6654481899738312,-0.518993199467659,0.5172841367125511,0.137424720749259,1.7085167562961578,-0.9856105208396911,-2.4430685687065123,19.530000648498536,-36.66600128173828,0.926250026524067,181.49654266565653,none,false,false,false,,,,,,,,,-1.0534767816857535,7.7881815409896396,-5.157613614998241,11.05987548828125,-52.8821272277832,53.5687525177002,0.05509529735358192,-0.09179826702756605,0.05254678167679375,-1.0534767816857535,7.7881815409896396,-5.157613614998241
39.0,0.09748327745325572,-0.4439683100071681,0.3163189358698825,-0.9656555117929683,7.854126369251924,-5.749855882981244,-0.06632673254900492,0.04777920778637918,0.024700989988217556,-0.6640719742167229,-0.5147107635058609,0.5285156211432289,0.11955534389206007,1.7222455190677268,-0.9445338354391211,-2.4247815305111455,19.464375762939454,-36.743251419067384,1.619250055924058,182.5408615684277,,,,,,,,,,,,,-0.8678632838121962,7.409672395855773,-5.4330914371153884,10.995000505447388,-52.96050247192383,54.263252105712894,-0.06489591526402401,0.043522153058928426,0.02308774733971251,-0.8678632838121962,7.409672395855773,-5.4330914371153884
40.0,0.10611483943418111,0.17189510004355177,0.16165649444602503,-1.1336463377027228,7.513021572981731,-6.159767490802425,0.00896176373056483,-0.06091923990250364,0.07548749872355484,-0.6674805495998647,-0.5168922071409697,0.527527646263047,0.09262229708751829,1.7195232150578263,-0.907020905230305,-2.3867576995698534,19.68150085449219,-36.42112655639649,4.01587516784668,186.31896749730637,none,false,false,false,,,,,,,,,-1.0272089594497926,7.684365220589213,-5.9976106681446035,11.214750423431397,-52.6387523651123,56.660627365112305,0.010404166943557999,-0.06517230344972774,0.07387389685483832,-1.0272089594497926,7.684365220589213,-5.9976106681446035
41.0,0.1406911388039589,0.015449963363946653,0.0859731237367526,-1.0862315992514293,7.71770193530064,-5.899567744311164,-0.002382425697391281,0.07924356374262582,-0.051219430175785084,-0.6692507617613849,-0.530300471128202,0.5110738137189079,0.09544664782051947,1.715417631700927,-0.9402192696636799,-2.3623810281940534,17.941125755310058,-35.33362632751465,3.511500137448311,185.69348887300308,,,,,,,,,,,,,-0.9452500442481216,7.7326106791402776,-5.813073780022416,9.472875394821166,-51.55087738037109,56.15512710571289,-9.43440496737119E-4,0.07498923188425821,-0.05283131151653753,-0.9452500442481216,7.7326106791402776,-5.813073780022416
42.0,0.30787262223660944,-0.22294131882488727,0.04625221678987145,-0.9948150689154863,7.6690782976150516,-5.9614886283874515,0.00461838225943639,0.05116752401797795,-0.06717953454776138,-0.6700967586040497,-0.49977043956518175,0.5376725393533707,0.10693881049752235,1.699444319009781,-0.9021147656440734,-2.4494122314453124,16.37212568283081,-36.919876403808594,3.123375120162964,184.85361698817988,none,false,false,false,,,,,,,,,-0.679978250110946,7.450580526106428,-5.9096022667271075,7.9042503356933596,-53.13600227355957,55.76625213623047,0.0066884894403490686,0.04775470285906945,-0.07269938056366426,-0.679978250110946,7.450580526106428,-5.9096022667271075
43.0,0.09967847578638397,-0.3789120393933034,0.4264320749150333,-1.1835475783137714,7.748789665745754,-5.839171559202905,0.05167413184345506,-0.008480073459962807,-0.050059530459860765,-0.6701115568478903,-0.5161363426961151,0.5254711806774139,0.08697246099073513,1.7088967456537134,-0.9001518061348036,-2.3858286165723612,17.499000730514528,-36.525751457214355,2.921625121831894,184.49245834331788,,,,,,,,,,,,,-1.0835794611359197,7.369362129884608,-5.4122208263359814,9.029250383377075,-52.74300247192383,55.564502258300784,0.05311448006236022,-0.012735767944688253,-0.051671410186935475,-1.0835794611359197,7.369362129884608,-5.4122208263359814
44.0,0.039777248576356214,0.10111603366211057,0.1905680326744914,-1.1758879175782204,7.815642156600952,-5.76586347579956,0.007563860911765311,-0.04101175667791821,0.05616670669434537,-0.6639014315605164,-0.5315438693761826,0.518305236697197,0.08508283011615277,1.7418182337284087,-0.9180242115259171,-2.334658966064453,19.205250701904298,-36.24900146484375,2.17687508687377,183.46137744915802,none,false,false,false,,,,,,,,,-1.1357340534834657,7.916269912719726,-5.574801261425018,10.735875406265258,-52.466627502441405,54.82012733459473,0.009012376119631647,-0.04525655912382916,0.05455482712402792,-1.1357340534834657,7.916269912719726,-5.574801261425018
45.0,-0.08359032008436271,-0.022687266051184898,-0.05406980121544763,-1.3656187486999176,7.882572061875287,-5.6189661493488385,-6.753669266461157E-4,-0.07358002450371928,0.058522426395439635,-0.6606168548266093,-0.5365807641954983,0.5185860591191872,0.07933868588331867,1.7587831791709452,-0.9132315948897717,-2.3092138533498727,20.802750797271727,-35.646376571655274,2.7825001108646394,184.4842674300293,,,,,,,,,,,,,-1.4488339004946835,7.859413651859059,-5.672541443039389,12.334125528335571,-51.86400215148926,55.426877136230466,7.575982040269117E-4,-0.07783173992042887,0.05691286842521353,-1.4488339004946835,7.859413651859059,-5.672541443039389
46.0,-0.07415386153311998,-0.23091996671157142,0.06797668449671976,-1.5426556123237984,7.789547256394928,-5.698244132247626,-0.04310965240186099,0.07979628640586639,-0.04818217708074515,-0.6537857534838658,-0.5412737750539592,0.523619821842979,0.07057448998824054,1.788188286856109,-0.8975790867618486,-2.276298298555262,19.1268758392334,-34.41112648010254,1.9335000693798066,183.22923086598988,none,false,false,false,,,,,,,,,-1.6163265518707168,7.558109189949784,-5.629757619371601,10.659000301361084,-50.62687721252441,54.5775023651123,-0.041666583923420104,0.07554876271838157,-0.04979950492500816,-1.6163265518707168,7.558109189949784,-5.629757619371601
47.0,0.03895307773041843,-0.5524430892402583,0.4445519053865925,-1.1394034358534482,7.846119186665752,-5.73798393967128,0.05383125021049351,-0.06253688730865571,0.049152205328402275,-0.6563377781669693,-0.5229739605790318,0.5340871521742037,0.09900600064804058,1.76678201703742,-0.9151924907571019,-2.360198946282415,16.072500667572022,-32.383126411437985,0.37537501245737076,180.67109769303153,,,,,,,,,,,,,-1.100051041508075,7.293206790886303,-5.292946272557325,7.605375332832336,-48.60075180053711,53.018252487182615,0.0552628671284765,-0.06678860197208968,0.04753590625363822,-1.100051041508075,7.293206790886303,-5.292946272557325
48.0,0.105114686426104,0.03965668319998419,0.2715939014017874,-0.8347231974259165,7.839265196931128,-5.781959220474842,-0.016922029242435896,-0.0517530945950363,0.013406931086083745,-0.6784818622411466,-0.5358885772087995,0.49694996955348,0.07205081351247489,1.684915591688717,-0.9250786602497101,-2.333014733651105,20.12625072479248,-32.061001472473144,2.3715000915527344,184.21668328096143,none,false,false,false,,,,,,,,,-0.7294309244984213,7.878453296773574,-5.509901743309171,11.658375511169433,-48.27637687683105,55.0158772277832,-0.015477598575635416,-0.05601014720626397,0.011790964521910294,-0.7294309244984213,7.878453296773574,-5.509901743309171
49.0,0.07371648446204934,0.059171147538478124,0.03700911605933515,-0.9123362234913477,7.640893539579788,-6.03701651922547,0.01442132332800504,0.03792708306390719,0.016706249325116183,-0.6792244810869198,-0.5339917865129981,0.4996337663419176,0.058275257191150495,1.6842567188905018,-0.9007343974443945,-2.3193415910890787,19.291875686645508,-33.67425148010254,2.939625127315521,185.0040245831463,,,,,,,,,,,,,-0.8383307348162231,7.6995716472663505,-5.999519109725952,10.822500400543213,-49.89187728881836,55.58400215148926,0.01586507330648601,0.0336726712674706,0.015085907210139375,-0.8383307348162231,7.6995716472663505,-5.999519109725952
50.0,0.09940481769359287,-0.06346867973094478,0.10571975082012952,-1.1270083469503067,7.796597102109124,-5.804881549349018,-0.04198378659231533,0.013159157883486535,0.015741707485095405,-0.6692938787095687,-0.5533115957297531,0.49184950601820854,0.060405273976571416,1.7324117679221958,-0.9276864785774082,-2.257715197170482,19.134000854492186,-33.55275161743164,2.2425000929832457,183.81696103063692,none,false,false,false,,,,,,,,,-1.0272221065619414,7.732656259162753,-5.698648803374347,10.66425048828125,-49.770377197265624,54.88537734985351,-0.04054480079229515,0.008907549784030064,0.014135272057708537,-1.0272221065619414,7.732656259162753,-5.698648803374347
51.0,0.24364319596310505,-0.32114998487257723,0.1360924115570465,-1.2586581299800683,7.493286449130219,-6.135507267300445,-0.012136396910885678,-0.018648773938527003,-0.028825122319782775,-0.6701769775683337,-0.5491717440066951,0.497384243672437,0.03862098993567547,1.7274803159260514,-0.8856594527121817,-2.2424219952951563,18.25950077056885,-31.832251052856446,4.803375182151794,188.57276988944952,,,,,,,,,,,,,-1.0147782665686589,7.171660758481167,-5.998922064752862,9.792750301361083,-48.048751983642575,57.447377395629886,-0.010695342376243835,-0.022899142293003844,-0.030437377103440025,-1.0147782665686589,7.171660758481167,-5.998922064752862
52.0,0.17355844429488676,-0.3015752453676553,0.41478640324089167,-1.1586281365039302,7.726615410225064,-5.8636984217400645,0.03728700394161267,-0.006786510348320007,-0.08386547017455248,-0.680258638718549,-0.5469022755529366,0.48420895373120026,0.05574821523737674,1.6836029489835103,-0.9238202928328046,-2.287031040472143,17.767500667572023,-32.571751251220704,3.4188751435279845,186.0165704694407,none,false,false,false,,,,,,,,,-0.9848912316100562,7.424562122307572,-5.448391442205391,9.300000371932983,-48.788627014160156,56.06100212097168,0.03872462809270266,-0.011040842275845238,-0.08548687984890277,-0.9848912316100562,7.424562122307572,-5.448391442205391
53.0,0.0063539357062908685,0.13264587966005992,0.01060014652401799,-0.8547404726349408,7.6204486176519115,-6.066719135435501,-0.005606494853090422,-0.012838725708242432,0.003926838245973283,-0.6893282963497804,-0.5352863191377999,0.48470343870691734,0.05460804962728283,1.6419533620966542,-0.9124712648958263,-2.329324009394882,13.934625568389892,-33.830251388549804,3.4556251406669616,185.8418666598436,,,,,,,,,,,,,-0.8481059881379035,7.752631569852923,-6.055598296741448,5.46450023651123,-50.04600227355957,56.100002212524416,-0.004164093374913814,-0.017090440773423397,0.0023051469230695684,-0.8481059881379035,7.752631569852923,-6.055598296741448
54.0,0.029997350981312933,-0.06229551076231634,-0.010633881076001654,-0.9768758117308036,7.645593264523675,-6.010512585733451,-3.907169943841377E-4,-0.007385519614424741,0.03188774694624071,-0.6801404695884854,-0.5393689064418569,0.49260257681210834,0.05982826540575308,1.6815029558013468,-0.9150391793718525,-2.310790590211457,15.723750610351562,-33.26137687683106,5.151750202178955,188.8079078095073,none,false,false,false,,,,,,,,,-0.9466662214448055,7.582793006709978,-6.02066941354789,7.252875318527222,-49.47825263977051,57.796502685546876,0.0010523503222087823,-0.011630321119792095,0.03026633697220742,-0.9466662214448055,7.582793006709978,-6.02066941354789
55.0,-0.17324897144358642,-0.4091515917294096,0.24347636174631887,-1.1132446857962277,7.78041671054198,-5.80810283434273,0.04085906874844987,0.02359877496629077,0.013121813718302577,-0.6701822930043286,-0.5464432038883171,0.496084066605804,0.0763986537804698,1.7238875084584302,-0.9411240491536584,-2.297329550922507,16.95900058746338,-33.16650127410889,3.7511251759529114,186.47723784019064,,,,,,,,,,,,,-1.2861431267407566,7.370799853069948,-5.564134441980041,8.490750322341919,-49.38375282287598,56.39475242614746,0.0422987741390791,0.01934840690399356,0.011505514734844659,-1.2861431267407566,7.370799853069948,-5.564134441980041
56.0,0.08494193227413822,-0.30951954118505703,0.3744076048115305,-1.1295870469481337,7.85633976319257,-5.715318460090487,0.002250371376366013,-0.005426485234373572,0.05469504948059964,-0.6692303197056639,-0.5569485794095432,0.48681683195572273,0.0679361368803417,1.7329666450911878,-0.9467656168283201,-2.2583476678997862,19.091250762939453,-31.54500129699707,3.671250133514404,186.64611488249838,none,false,false,false,,,,,,,,,-1.0443029912900836,7.5463150622797945,-5.340428219122045,10.621125392913818,-47.760751953125,56.31525230407715,0.003700247394050112,-0.00968081662246939,0.05308180709028303,-1.0443029912900836,7.5463150622797945,-5.340428219122045
57.0,0.028720082484628304,-0.030757355402306754,0.17656534506321545,-1.1602016047085866,7.777214333562568,-5.805553101076939,-0.02661838307611498,-0.02581629970604006,0.05555539149517084,-0.6693939076791896,-0.5580126194670649,0.4857940372854176,0.06199966334175355,1.7315275303208002,-0.9393066775680768,-2.2495537063863016,19.38487585067749,-31.392376251220703,2.6651251125335693,184.9121475214055,,,,,,,,,,,,,-1.131207971160512,7.74589195345888,-5.628457661902551,10.917375411987305,-47.60775177001953,55.30950241088867,-0.02517732813516084,-0.030073406672397374,0.053933700847932524,-1.131207971160512,7.74589195345888,-5.628457661902551
58.0,0.05819287241491325,0.1187306234941763,0.09536213721559547,-1.3183943074123532,7.680475524827545,-5.898112086688771,0.016720545302965854,0.06929999964754327,-0.061164356242533365,-0.6626046428493425,-0.5566245919349146,0.49691857134594636,0.05952918617164388,1.7607001463572185,-0.9225487393491408,-2.237134194841572,21.173625717163088,-31.807501525878905,4.317000167369843,187.77549269965496,none,false,false,false,,,,,,,,,-1.2598368161558813,7.798676850748997,-5.802254655781915,12.703500518798828,-48.024376983642576,56.96025245666504,0.01815408457181241,0.06504566758170281,-0.06277759795971584,-1.2598368161558813,7.798676850748997,-5.802254655781915
59.0,0.08220802836286106,-0.12884194079307046,0.06096371049338048,-1.3362011950795014,7.528174655272229,-6.092736905164058,-0.041150245719644075,0.0015408085230007476,-0.005196690760260704,-0.6659748684061636,-0.5475752955616111,0.5033084723618951,0.05557192087468534,1.7440433596620466,-0.9032052407170287,-2.260701797976352,21.87675090789795,-33.44512649536133,4.377375187873841,187.4628389908802,,,,,,,,,,,,,-1.2535871876459015,7.398833506178148,-6.031253750961606,13.41112549304962,-49.662377243041995,57.022502670288084,-0.03971458288987039,-0.002709558215357509,-0.006799510415351274,-1.2535871876459015,7.398833506178148,-6.031253750961606
60.0,0.23376913722513207,-0.311372214416955,0.1601145992571415,-1.4120249286586164,7.733079106199975,-5.809911877501245,0.04566905991921183,0.02534356359669035,-0.008109777234494686,-0.6640456178609062,-0.5556917582072464,0.49546077642955033,0.06615808817977999,1.7544568029104495,-0.9335972988138012,-2.250102851905075,20.382750663757324,-33.90450149536133,2.588625099658966,184.39593777274592,none,false,false,false,,,,,,,,,-1.1778824047514183,7.421259183509677,-5.649297351930656,11.915625438690185,-50.12062728881836,55.23075225830078,0.0471039591403217,0.021091955123782747,-0.009733910967439119,-1.1778824047514183,7.421259183509677,-5.649297351930656
61.0,0.08073334509303959,-0.34452463651051757,0.3379519412681313,-1.542768683764014,7.787073239241496,-5.696764573012248,0.003979411318569499,-0.016584925823753663,-0.04649387184968766,-0.6619033069893865,-0.5597498393294835,0.4935031468325322,0.06768862419936916,1.7661537522136574,-0.9402908765443481,-2.2366772500595244,19.543500747680664,-33.05325164794922,2.772000107765198,184.78565178089102,,,,,,,,,,,,,-1.4616847209595512,7.442113715823334,-5.358297281926221,11.077500438690185,-49.270127334594726,55.416377258300784,0.005417770003059916,-0.020839337843890283,-0.04811825993123884,-1.4616847209595512,7.442113715823334,-5.358297281926221
62.0,-0.005218627305664853,0.06693302713078904,0.11366986454117532,-1.468027415228825,7.622135765412274,-5.944188870635688,-0.012335519582992144,0.004284283187756739,-0.017088118645519314,-0.6628036329559251,-0.5470415219372394,0.5065562853626177,0.06780342180647102,1.7559353463789995,-0.9170541780836442,-2.272114323634727,19.86225086212158,-33.183751525878904,4.746375164985657,188.13151677797472,none,false,false,false,,,,,,,,,-1.472839770582961,7.688557727664125,-5.829995861240461,11.394000434875489,-49.400252151489255,57.39112716674805,-0.010892450509795754,3.811845205502935E-5,-0.018697276656137834,-1.472839770582961,7.688557727664125,-5.829995861240461
63.0,0.04247683761549173,-0.02960693679454893,-0.06726354412218132,-1.445721717754213,7.646108565944256,-5.916623974790667,0.023887254452953737,-0.06722132354408648,0.0264674020593292,-0.6642296119491653,-0.5514926166817693,0.4998055006017779,0.06536199986049444,1.7520241926212121,-0.9241228941643592,-2.2599422601189945,21.87750072479248,-34.18575149536133,5.076750202178955,188.43187155966652,,,,,,,,,,,,,-1.4029560154672749,7.615972613344098,-5.983388900756836,13.412625484466552,-50.40187728881836,57.723002166748046,0.025333700459633096,-0.0714676469135299,0.02485514603847382,-1.4029560154672749,7.615972613344098,-5.983388900756836
64.0,-0.11541412680618997,-0.15391073671772199,0.1914427280060801,-1.3201101802143396,7.832088035695693,-5.680142038008746,0.009313603141801614,-0.03035245051004869,0.019418503888243555,-0.6684641762107026,-0.5609949125963098,0.48276319603125256,0.06964362719479729,1.7382447357271231,-0.9567018694737378,-2.2478669133840823,22.28737579345703,-35.96662643432617,3.535875129699707,185.63985932181433,none,false,false,false,,,,,,,,,-1.4350677187390186,7.677678318584666,-5.4881943908392214,13.821375579833985,-52.182377319335934,56.18062744140625,0.01075330886113293,-0.03460147053313752,0.01781029308981755,-1.4350677187390186,7.677678318584666,-5.4881943908392214
65.0,-0.011841913160192324,-0.46209414926010606,0.23523036324802568,-1.3642243105991214,7.926499104967304,-5.5496397065181355,0.021274381363303355,0.04845445549189307,-0.0017194306837523927,-0.6636034554126216,-0.564097347797132,0.48572657622543036,0.0710558332502842,1.7612632419548782,-0.9572743305972978,-2.231853545880785,21.761625900268555,-36.39000144958496,3.7957501864433287,185.97126491236938,,,,,,,,,,,,,-1.3757353577507185,7.463840063880472,-5.313845870541591,13.294500541687011,-52.60687721252442,56.44012733459473,0.02272970246907213,0.04420420739080499,-0.003340841298646266,-1.3757353577507185,7.463840063880472,-5.313845870541591
66.0,0.2652247851935796,-0.13210739326285253,0.4134899721121286,-1.2829421410466184,7.983675937841435,-5.513150687264924,-0.013776960417482198,0.020757106438680898,0.025999632750765656,-0.667346994475563,-0.5575705276857509,0.48657143617620563,0.08201358415702782,1.7400243919674714,-0.9686131642596556,-2.270747213080378,19.997250862121582,-36.525001754760744,3.2418751335144043,185.05666420217298,none,false,false,false,,,,,,,,,-1.01739658510294,7.851052402269723,-5.0991195629138755,11.530125408172607,-52.74262733459473,55.886252365112306,-0.012342646512586404,0.016502696244666975,0.02438198560027077,-1.01739658510294,7.851052402269723,-5.0991195629138755
67.0,0.04249872780386724,0.044919817233640774,0.06282397549526364,-1.2579598467723996,7.6029297417285395,-6.011249911551382,-0.016178712013666288,0.0020448019276234773,0.010038861091995593,-0.669424059344273,-0.5434222758985033,0.5018660881940056,0.06634587308793675,1.7270930362682717,-0.9175265057414186,-2.290766573419758,18.756750602722168,-36.09037658691406,5.26687520980835,188.30449151007633,,,,,,,,,,,,,-1.2151765325928436,7.64737244680816,-5.947945868267732,10.2881254196167,-52.307252197265626,57.91087715148926,-0.014732920661531758,-0.002206807172313185,0.008412005389017044,-1.2151765325928436,7.64737244680816,-5.947945868267732
68.0,0.03429736437778551,-0.07766109128196788,0.06160635445820223,-1.3732758117194224,7.641061697856034,-5.956170355919564,-0.035253921509994304,0.015532107247660557,0.001757842620980798,-0.6638705364548334,-0.5561193015315745,0.49570772169840216,0.06291730746184246,1.755882470914633,-0.9288808048361599,-2.2445157117182664,19.872375717163084,-34.90350128173828,5.716125192642212,189.30603634310236,none,false,false,false,,,,,,,,,-1.3385376934662905,7.562877107374739,-5.894054238158877,11.404500503540039,-51.12112731933594,58.360502548217774,-0.03380747536635574,0.011280392922059285,1.5232848989612917E-4,-1.3385376934662905,7.562877107374739,-5.894054238158877
69.0,0.1319578636948969,-0.09056668403540172,0.07192730028912717,-1.563468365692625,7.661165447796092,-5.876132591097963,0.017802845649790056,0.01456274805442974,0.008918439900262816,-0.6566051279797274,-0.5568080953523225,0.5045236489352058,0.0641181183723258,1.7859561045964558,-0.9207073204657611,-2.2320674657821655,22.10587574005127,-33.22762649536133,6.836625289916992,191.631866557762,,,,,,,,,,,,,-1.4310603620091855,7.570131255131142,-5.803672325377371,13.637625598907471,-49.446002349853515,59.48100234985352,0.019236386301788953,0.01031250047893955,0.00729430722312467,-1.4310603620091855,7.570131255131142,-5.803672325377371
70.0,0.10985974232564763,-0.41289488985986994,0.4437905966516326,-1.1790423348988637,7.411267521357773,-6.26460597066596,-0.0049095599976021285,-0.036577694848471995,-0.05905624976673839,-0.6714762732534125,-0.5455857007810385,0.4987205656448213,0.044801178249982324,1.720322859169233,-0.8903216560288231,-2.261255691547205,24.17700092315674,-32.48775127410889,8.814750385284423,195.18371290095544,none,false,false,false,,,,,,,,,-1.0689089562119178,6.9978448943336415,-5.820298785030252,15.708000621795655,-48.703876953125,61.45725212097168,-0.0034711992724196,-0.040826715807448705,-0.06067794092985637,-1.0689089562119178,6.9978448943336415,-5.820298785030252
71.0,0.0019065920336573733,-0.1741836007442508,0.19569460644076267,-1.2572020467589884,7.369959055208692,-6.305500152064305,-0.016433291330859804,0.027067080130892814,-0.0024042079723117374,-0.6701175062095418,-0.5432868588204477,0.5036806785592846,0.039830784404686854,1.7250398724686866,-0.8762513445872887,-2.2587854067484536,25.496250953674316,-32.663251419067386,8.274000358581542,194.26717283648696,,,,,,,,,,,,,-1.2549191802721835,7.195260650971356,-6.109295894117916,17.02800054550171,-48.88012718200684,60.918002166748046,-0.014990222566567435,0.022814108533692538,-0.004016089373000777,-1.2549191802721835,7.195260650971356,-6.109295894117916
72.0,0.008760265286465516,0.004473460543126163,0.017428585355824762,-1.486607261223368,7.174869291853197,-6.480102369100741,0.013578798749721517,-0.03124215621866432,0.04810477964415708,-0.6625630448360255,-0.5505052297422202,0.5066118275765146,0.028470475263524763,1.7559524054574494,-0.8612313949235595,-2.2164824953173645,25.468876037597656,-33.59625175476074,6.543375253677368,191.03606608627814,none,false,false,false,,,,,,,,,-1.4773842291814265,7.17879836394055,-6.46218741058123,16.99687562942505,-49.81387733459473,59.185127334594725,0.015026592708868431,-0.0354898271388283,0.04649791625492713,-1.4773842291814265,7.17879836394055,-6.46218741058123
73.0,0.07365790603445004,-9.630296890642129E-4,0.050877440821233334,-1.7158420763763726,7.454429406745761,-6.094934042762308,0.03807524722161712,-0.037368687708852905,0.007980443970622992,-0.6556132266334459,-0.5636221164581823,0.5003007299759809,0.0408556470464842,1.7904120192808264,-0.8947412856653625,-2.186678000524932,20.364000816345214,-36.35775138854981,4.985625200271606,187.8245362671719,,,,,,,,,,,,,-1.6417206690153654,7.453001826417212,-6.043519422119739,11.89687539100647,-52.57462745666504,57.627002487182615,0.03951287123439188,-0.041621658637529556,0.006367202981900756,-1.6417206690153654,7.453001826417212,-6.043519422119739
74.0,-0.09786593148277065,-0.2216872400281453,0.056079893990760986,-1.7906369932807318,7.533735327201314,-5.957139279582713,-0.019870097712412767,0.04569178923745366,-0.021344853158784555,-0.6479427383677794,-0.5624801787999597,0.5104379299843665,0.05373657373065996,1.8212316496537464,-0.9007008884212758,-2.1926672198984885,17.490750675201415,-31.81612632751465,8.020500345230102,194.33174799112564,none,false,false,false,,,,,,,,,-1.8880307878007982,7.3115498571112605,-5.900603709834637,9.022875270843507,-48.03337677001953,60.66487716674805,-0.018426347948501214,0.04143872420193956,-0.022949019300879215,-1.8880307878007982,7.3115498571112605,-5.900603709834637
75.0,0.06094918389549004,-0.5550425400336584,0.3132714422479016,-1.6497313847728805,7.568124485950844,-5.971495661081052,0.007416831933441434,-0.029965469627502826,0.05164282153923028,-0.6493448200179082,-0.5544710813784132,0.516642727688247,0.06018756863241102,1.812659686686946,-0.8985426034413132,-2.222607271344054,18.753000831604005,-29.674876136779787,5.890875215530396,191.22938530715552,,,,,,,,,,,,,-1.5883383192487208,7.012559161466711,-5.6577179385166545,10.284000396728516,-45.891376724243166,58.53525230407715,0.00885990057325009,-0.0342129959429771,0.05003230167681923,-1.5883383192487208,7.012559161466711,-5.6577179385166545
76.0,0.141722688539009,-0.1090319452088068,0.3105238897744382,-1.474703576305125,7.5649031506906645,-6.013023376464844,0.01578553892014658,-8.344356491066077E-4,0.0013709562629753468,-0.6584226382840977,-0.5535518084422196,0.5062507668344101,0.058027950143164926,1.7764487974714525,-0.9071857923328286,-2.236590635658491,21.514500770568848,-29.758126182556154,5.3396252298355105,190.1919059329804,none,false,false,false,,,,,,,,,-1.3325733306753162,7.455387993614273,-5.701997785284968,13.046250553131104,-45.97537635803223,57.98325225830078,0.017215808565892717,-0.005083456512211877,-2.3725449436289424E-4,-1.3325733306753162,7.455387993614273,-5.701997785284968
77.0,0.10392649884577658,0.11540558367200635,0.0524281090965458,-1.406732099313362,7.6763594103794475,-5.871985033446667,0.023276979597008758,0.04499789584649376,0.0076931927094955254,-0.6574935720247381,-0.5553244235468846,0.5045545273551754,0.06519190218372672,1.7809893009709377,-0.920815459653443,-2.238901182716968,24.417750968933106,-31.930501174926757,4.042500156164169,187.2699560461776,,,,,,,,,,,,,-1.302528004376583,7.79125332364849,-5.819059100805545,15.949875717163087,-48.148502349853516,56.686127243041994,0.024720049306455227,0.04075037081735117,0.006078588416670808,-1.302528004376583,7.79125332364849,-5.819059100805545
78.0,0.15960586070812693,0.025659967324521284,0.05220108920025943,-1.5550753279487686,7.6218963094276955,-5.912012322114245,-0.019773039555944064,0.028075612725361306,-0.03474436211399734,-0.6541555017232895,-0.560231831073761,0.503027370274067,0.06863238964229822,1.7969600772857666,-0.9308308720588684,-2.224510097503662,24.571500778198242,-32.86650138854981,3.945375151634216,186.85567631414904,none,false,false,false,,,,,,,,,-1.3950787794287547,7.64705232110354,-5.859298798117307,16.103625679016112,-49.08337684631348,56.59012741088867,-0.01763539638204297,0.027200494934389793,-0.03835024790709267,-1.3950787794287547,7.64705232110354,-5.859298798117307
79.0,0.23689649491479584,-0.33941171652473073,0.0795961588590609,-1.7218089799086254,7.608823079688876,-5.885069029003966,0.006386263226850493,-0.022886262704055794,-0.007193564474213832,-0.6513081011818904,-0.5603940107074439,0.5070264660844616,0.06590447994862117,1.809315827547335,-0.9219312743813384,-2.215615394068699,23.367000846862794,-32.35687644958496,4.254000153541565,187.49329680456802,,,,,,,,,,,,,-1.4844927195934396,7.268922413096709,-5.804948804425258,14.897250595092773,-48.574501953125,56.89950210571289,0.007826609145112262,-0.027132426139594306,-0.008816336779532457,-1.4844927195934396,7.268922413096709,-5.804948804425258
80.0,0.08368163181256762,-0.30084237937485836,0.46580178817125534,-1.4220674421527597,7.64612597286111,-5.928611878121253,0.015634558884901742,0.013294361732607963,-0.03816164116484716,-0.6571299038311043,-0.5575088947126181,0.5021652756351056,0.06780258403851254,1.7836435348680704,-0.9287196267949472,-2.2354161432473965,22.08075092315674,-32.0066263961792,4.325250196456909,187.68096194902267,none,false,false,false,,,,,,,,,-1.3379807630830471,7.344799348623446,-5.462311161626683,13.614750518798829,-48.223877029418944,56.97000267028809,0.017072916994163512,0.009050734578540512,-0.03977524576818242,-1.3379807630830471,7.344799348623446,-5.462311161626683
81.0,0.0339533906891102,-0.060260792135023604,0.22137221234722756,-1.6083696946209551,7.615296480702419,-5.924806211508956,0.014701608402451665,-0.008297647533956731,-0.009916337663399995,-0.6547509092910617,-0.5586448668264875,0.5037197572927848,0.07196264670175664,1.794859225843467,-0.9341701415239596,-2.2327152046502805,22.87762584686279,-31.930126304626466,4.843875188827514,188.61850219046192,,,,,,,,,,,,,-1.5740015417446984,7.554537090600705,-5.702922323170831,14.407125568389892,-48.14775192260742,57.48450233459473,0.016143317062333965,-0.012546534488659979,-0.01153366376028055,-1.5740015417446984,7.554537090600705,-5.702922323170831
82.0,0.05238791134687933,0.025765345348875122,-0.025830493410034936,-1.504443106674912,7.580779849892796,-5.9892064132312735,-0.014487378372281206,-0.02006286737856035,0.018087989951976958,-0.6560702595380273,-0.5560001530269585,0.5052679405354037,0.06850921735167503,1.7875670926405651,-0.9253532184232579,-2.238270072653742,23.202750930786134,-32.41500133514404,5.237250218391418,189.18703236184916,none,false,false,false,,,,,,,,,-1.451682247811615,7.606011758936514,-6.014508726573227,14.736000633239746,-48.6315022277832,57.88275199890137,-0.013044974305575677,-0.02431323523541876,0.016471690416116926,-1.451682247811615,7.606011758936514,-6.014508726573227
83.0,0.036914529140203205,-0.105608752910413,-0.05154750153751058,-1.633818507194519,7.659564789603738,-5.85793607375201,0.021582055117676753,-0.0470862617015396,-0.0043373758959962,-0.6568468563696918,-0.5685246674453511,0.49195051164019343,0.04482481354737983,1.787730402806226,-0.9138591061620152,-2.1795661613052966,24.101250915527345,-32.473876571655275,4.528500165939331,187.94513305717385,,,,,,,,,,,,,-1.5964927279262566,7.553492957470464,-5.908975269280228,15.634125652313232,-48.691501998901366,57.17025245666504,0.02302240081002364,-0.05134059309424593,-0.005949256946286648,-1.5964927279262566,7.553492957470464,-5.908975269280228
84.0,-0.1277901068713297,-0.5691324075976131,0.2288514345091957,-1.2654585753585779,7.901687383651733,-5.600723570468379,-3.3970570703055345E-4,0.0463199761431372,-0.008644975160303362,-0.6586337755708134,-0.5772187990300796,0.47964753824121814,0.051121647341870795,1.7881448315639121,-0.9432287251248079,-2.1647692381166945,22.687500762939454,-32.8001265335083,2.691375095844269,184.6762912968591,none,false,false,false,,,,,,,,,-1.3929603686738832,7.332054722542856,-5.371351728252336,14.221500568389892,-49.01850227355957,55.33687728881836,0.0010905646691646647,0.04207230397207918,-0.010253186164168166,-1.3929603686738832,7.332054722542856,-5.371351728252336
85.0,0.12648140177554865,-0.2202212046866425,0.31530905551839583,-1.4725480386526277,7.844308702072294,-5.640767645127703,0.021042892640894827,-0.00758272098541698,0.0632850490693076,-0.6610308714432291,-0.5794189100218291,0.4737575927583298,0.04578637654459713,1.7768159125110892,-0.9429903242847707,-2.158029537389774,23.52112590789795,-32.02462627410889,3.010875127315521,185.38839774560202,,,,,,,,,,,,,-1.3457079872046367,7.623558762049911,-5.324948260099581,15.053625621795653,-48.24187698364258,55.65412727355957,0.022483945267238452,-0.01183443546623868,0.06165931473358297,-1.3457079872046367,7.623558762049911,-5.324948260099581
86.0,0.14795019862461178,-0.0917790755994764,0.11616117956445497,-1.328882082420237,7.584117449966132,-6.025738730150111,-0.07579245085892554,-0.0060350244016488,0.016346163383804926,-0.48242390447971867,-0.41865827464589883,0.3435964774267346,0.011877705768497167,1.7599866483725755,-0.8948008803760304,-2.1238175911061905,24.031500968933106,-32.316001358032224,5.016375207901001,188.84948129835445,none,false,false,false,,,,,,,,,-1.1806662399139183,7.491812079560523,-5.909095876357135,15.563250694274902,-48.531377182006835,57.66000213623047,-0.07435346571359747,-0.01028663400874132,0.014737005230260662,-1.1806662399139183,7.491812079560523,-5.909095876357135
87.0,-0.012569231428205967,0.10636590577661992,0.13116524443030358,-1.5902120500802994,7.239689807891846,-6.373724699020386,0.1359484072719865,-0.0072875005585671055,0.062418259785273204,-0.07652754485607147,-0.0719912451505661,0.0577771732211113,0.008578550043748691,1.7991444015502929,-0.8630495953559876,-2.1048742294311524,24.406875801086425,-31.90650131225586,7.101375322341919,192.49080791521268,,,,,,,,,,,,,-1.591105018327437,7.3253350021815535,-6.231569107216184,15.938250560760498,-48.123751907348634,59.744627456665036,0.13738946073834657,-0.011544608323853098,0.06080465606304214,-1.591105018327437,7.3253350021815535,-6.231569107216184
88.0,0.16903864688185208,-0.185495380202637,0.16296751928680084,-2.063749778504465,8.052586578855328,-5.162058507694917,-0.005811756993136783,-0.05328737580134432,0.02271336649018939,-0.6123875186723822,-0.612823857980616,0.4147386667775173,0.014914813894018367,1.9107894932522493,-0.9722955384675194,-1.9040050120914684,28.052626113891602,-29.191875991821288,2.9062501230835913,185.63848531037016,none,false,false,false,,,,,,,,,-1.8941750950088687,7.866565063887951,-4.998589929412393,19.58362579345703,-45.40950164794922,55.55025192260742,-0.004357797149015535,-0.05754170723554521,0.021108291706642007,-1.8941750950088687,7.866565063887951,-4.998589929412393
89.0,-0.05986075133251229,-0.34660862535607107,0.19789437935825918,-1.9145281432878853,7.85603134702928,-5.523803319081222,-0.03494387239619505,0.3279213218712339,-0.22098406775416257,-0.6139681675646564,-0.5689624825326522,0.461947378250632,0.06893399998973271,1.878770108270173,-0.9774333740224933,-2.0982394619743423,25.81875102996826,-33.67200145721436,-0.01087500125169754,180.53715412270543,,,,,,,,,,,,,-1.9738798011647594,7.508970671361036,-5.325340346534653,17.350125675201415,-49.88962715148926,52.63162734985352,-0.03350012248619368,0.3236723017751002,-0.22259093052707613,-1.9738798011647594,7.508970671361036,-5.325340346534653
90.0,0.04847827056358915,0.17691319295223437,0.03913676227652924,-2.1050618548019258,8.176312198825912,-4.947761161654603,0.04872945557339209,-0.12794170627315152,0.017646287042315644,-0.6344075524339489,-0.5911782728690728,0.48469768902834726,0.10817939189134859,1.9080959301368863,-1.0274310071094364,-2.1348358860202863,23.438625946044922,-36.46162673950195,-3.365625116825104,174.7366028659666,none,false,false,false,,,,,,,,,-2.056141268644555,8.35267686843872,-4.908085518023547,14.969625587463378,-52.67812728881836,49.27650207519531,0.050180692161147546,-0.13219467789801484,0.01602623781355301,-2.056141268644555,8.35267686843872,-4.908085518023547
91.0,-0.01623973321390919,-0.2602268004476434,0.06594888995041942,-1.6780177508250322,7.830691710557088,-5.611753034119559,-0.09971985223648303,-0.04156678903154006,-0.03413235228600017,-0.6479300077598874,-0.5708620235471442,0.4970954178583504,0.08276769363939172,1.8309893006145364,-0.9652552309602794,-2.1987034944024417,22.674375801086427,-36.89587669372558,1.0117500440776348,181.58331201767513,,,,,,,,,,,,,-1.6937481017396,7.569944872714506,-5.5452774916545,14.20725061416626,-53.11275260925293,53.65462715148926,-0.09828553943182616,-0.04581850427020268,-0.03574460728879215,-1.6937481017396,7.569944872714506,-5.5452774916545
92.0,-0.04700436191542037,-0.3931857469108175,0.38530523618500606,-1.2521395022962607,7.595791854110419,-6.039398286856857,-0.010478589374867111,0.018894678461227086,0.007806188385417261,-0.6624951567135605,-0.5360867404470256,0.517082699081477,0.07717528435237267,1.7512225403505213,-0.9112608339272293,-2.310976187388102,18.600750770568848,-38.50650161743164,3.3652501344680785,185.00396366444204,none,false,false,false,,,,,,,,,-1.2987588860240638,7.202095905939738,-5.6536120246438415,10.13437536239624,-54.72337760925293,56.00700233459472,-0.009028713421730122,0.01464579204595325,0.006198391281437165,-1.2987588860240638,7.202095905939738,-5.6536120246438415
93.0,0.12011385044961301,-0.145736747854712,0.2571700134932405,-1.4081722320896564,7.57188085518261,-6.0370927045841025,0.011877572985694689,-0.04168676398694515,0.08463933779949359,-0.6557074378032496,-0.5446494209884417,0.5173503685705733,0.07067375257611275,1.7826203131439662,-0.9064182928293059,-2.27000097945185,18.97650079727173,-36.678001403808594,5.040000209808349,187.8500483860288,,,,,,,,,,,,,-1.2876594631683709,7.425633015018879,-5.779440868018877,10.507875452041626,-52.89450225830078,57.682502593994144,0.013310539549874031,-0.045939828355924466,0.08302303873386015,-1.2876594631683709,7.425633015018879,-5.779440868018877
94.0,0.054791467428645664,0.1991815861250621,0.10982641110233232,-1.4825929876636057,7.33029169662326,-6.298267934836593,0.049244058968517745,0.032813491106107096,-0.03577314294173871,-0.6533937512659559,-0.5458556752578885,0.5199742802217895,0.061217196066589916,1.7922756239479662,-0.890622313116111,-2.251829885968975,20.60812576293945,-35.236876525878905,5.206500191688537,188.42468836491673,none,false,false,false,,,,,,,,,-1.4274368380360745,7.528948910096112,-6.187942951333289,12.139125423431397,-51.45375228881836,57.84975242614746,0.05067623824821693,0.028555074287117413,-0.03738502350331533,-1.4274368380360745,7.528948910096112,-6.187942951333289
95.0,0.08335782550644166,-0.06543126671879303,0.22203143169679265,-1.4426284444214095,7.721972172803218,-5.848079775819684,-0.006898143600746251,0.021680074384306917,-0.00719492612775452,-0.654862924967662,-0.5714086211553895,0.49178106920553905,0.049609723141287816,1.8001622823205325,-0.922873581990157,-2.1729735006200204,24.018376121520998,-35.156251449584964,2.4270000994205474,183.97294287497442,,,,,,,,,,,,,-1.3588485809476438,7.656050842587311,-5.625592847861866,15.552375583648681,-51.37387748718262,55.06800231933594,-0.005457796760382924,0.01742982648147067,-0.008810890156148684,-1.3588485809476438,7.656050842587311,-5.625592847861866
96.0,0.33688144965608624,-0.37835562134198114,0.4021904467349397,-1.6476212085462083,7.7978089650472,-5.654489115172741,-0.02632376195696911,0.04365965332098232,-0.08563391058383012,-0.6561153647946376,-0.5637003376203424,0.4974124980907814,0.056382539115992246,1.7900890462538774,-0.9209897880460701,-2.2038318269393025,23.032876014709473,-36.119626388549804,1.9665000993013382,183.15399261737286,none,false,false,false,,,,,,,,,-1.31039271281813,7.418984156028897,-5.251786985818078,14.567250576019287,-52.33650245666504,54.611252288818356,-0.02487252518940385,0.03940668350804855,-0.08725123762125427,-1.31039271281813,7.418984156028897,-5.251786985818078
97.0,0.03940092657904814,-0.12653258824628769,0.20263716471519802,-1.455114997849606,7.79125191433595,-5.72810163120232,0.038717032839343246,-0.012924998450805159,-0.023342647973228905,-0.6607446977407625,-0.553982144535178,0.5019192598243751,0.0632052872661907,1.766966704094764,-0.9199612760307765,-2.245519007786666,20.775000762939452,-36.670876846313476,1.5300000607967377,182.40355021420962,,,,,,,,,,,,,-1.415315412870138,7.664226640569101,-5.524929454421053,12.304875411987304,-52.88737731933594,54.17437759399414,0.040159436075162945,-0.017172671051002016,-0.024960294365882874,-1.415315412870138,7.664226640569101,-5.524929454421053
98.0,0.1119665604395171,0.14870772116324482,0.10951262759957828,-1.43887938033132,7.939103958653469,-5.511548065671734,0.022816830812630678,-0.08537116313426948,0.010964603481426983,-0.664259100077199,-0.567847437133976,0.4804032544294993,0.06483828415181123,1.7604646051631254,-0.9562525527150023,-2.2144416290171005,22.33162582397461,-35.03512634277344,1.7883750684559345,182.9288380536496,none,false,false,false,,,,,,,,,-1.3265971222198476,8.087332725524902,-5.401541400189493,13.864500522613525,-51.25312713623047,54.431252517700194,0.024266707978331217,-0.08961868740267831,0.009349999811020818,-1.3265971222198476,8.087332725524902,-5.401541400189493
99.0,0.017045815700047307,-0.08106203948949824,0.056309831467005286,-1.4842252566082643,7.8447293432632295,-5.632006933193396,-0.024892892063065778,-0.027692769142780817,0.01560085728837579,-0.6635088117996065,-0.5623696310685413,0.48972391993692604,0.056637366145554154,1.7599209853918245,-0.9298112120958838,-2.220194575810196,26.394001007080078,-32.83387664794922,3.6847501516342165,186.40947828650908,,,,,,,,,,,,,-1.4668426427363168,7.76313308205935,-5.575241830089305,17.926875762939453,-49.050752029418945,56.32725227355957,-0.023457231543337304,-0.03194583328349479,0.01397916657265787,-1.4668426427363168,7.76313308205935,-5.575241830089305
100.0,0.014610814099547034,-0.47282412396196055,0.3871940860944782,-1.2843424683692408,7.8015763806361775,-5.7451466438817045,-0.012782054865677463,0.05525457947561056,0.03932091549481496,-0.6636291064468085,-0.5568618675072988,0.495758969409793,0.056387696305618566,1.7567669176587872,-0.918931864640292,-2.2344895671395695,28.088251342773436,-33.12862648010254,0.7923750422894955,181.34174766029273,none,false,false,false,,,,,,,,,-1.269380948049765,7.328316548291375,-5.357436988867965,19.61925094604492,-49.34625221252441,53.436377639770505,-0.011324009659819969,0.05100569265000153,0.03770903502544849,-1.269380948049765,7.328316548291375,-5.357436988867965
101.0,0.14722955218138228,0.09789585189359022,0.3973997545861962,-1.1550614934156436,7.672432852263498,-5.942018589170853,0.0665621319694408,0.0019425239377454215,-0.05380024474260269,-0.6707082083909819,-0.5430018423807503,0.5016581212530041,0.054839782121748025,1.7231208227648593,-0.9008818103535341,-2.2782867238073066,26.126626167297363,-36.16162643432617,-1.9620000755786895,176.97330514633168,,,,,,,,,,,,,-1.007496585101258,7.769808769226074,-5.544188866668408,17.655000801086427,-52.37850212097168,50.6805020904541,0.06800183813160687,-0.00231054043123389,-0.05542058928632269,-1.007496585101258,7.769808769226074,-5.544188866668408
102.0,1.4607923724049448,-1.6434421047166574,0.26983366331414266,3.2279875211271585,7.45456872734369,-1.2266641050284983,1.1502201650245576,0.36502437619953465,-1.1282296893325183,-0.6481311566689435,-0.39339906123338964,0.3338953037472332,0.44422756675996034,0.5796513490415379,-0.8532203833262125,-0.03603226297041949,-5.753625204563141,-20.728875832557677,-22.89112597465515,131.5969982921709,none,false,false,false,,,,,,,,,4.688657593785548,5.8106503159392116,-0.9568941540577832,-14.220375554561615,-36.94575159072876,29.751000957489012,1.1516577966815542,0.3607741297951134,-1.1298429400632435,4.688657593785548,5.8106503159392116,-0.9568941540577832
103.0,-0.4051058365633556,-0.5395525023341179,-0.22669991633544365,7.289529482523601,5.549590706825256,3.4780874053637185,0.0504624994041828,-0.05021922935086947,-0.11707596201449633,-0.5595819354057312,-0.3004309932390849,0.162278996159633,0.7551589260498682,-0.3410193050901095,-0.6203606873750687,1.165183554093043,-27.731251307896205,4.818750177110944,-42.14732360839844,83.4767614777112,,,,,,,,,,,,,6.930946496816782,5.020246432377742,3.2170155231769266,-36.20357295445034,-11.400000299726214,10.500000408717565,0.05192211528237049,-0.05448172947105307,-0.11868365488659877,6.883937835693359,5.009350299835205,3.251012643178304
