seconds_elapsed,accelerometer_z,accelerometer_y,accelerometer_x,gravity_z,gravity_y,gravity_x,gyroscope_z,gyroscope_y,gyroscope_x,orientation_qz,orientation_qy,orientation_qx,orientation_qw,orientation_roll,orientation_pitch,orientation_yaw,magnetometer_z,magnetometer_y,magnetometer_x,compass_magneticBearing,network_type,network_isConnected,network_isInternetReachable,network_isWifiEnabled,network_isConnectionExpensive,network_ssid,network_bssid,network_strength,network_ipAddress,network_frequency,network_cellularGeneration,network_carrier,totalAcceleration_z,totalAcceleration_y,totalAcceleration_x,magnetometerUncalibrated_z,magnetometerUncalibrated_y,magnetometerUncalibrated_x,gyroscopeUncalibrated_z,gyroscopeUncalibrated_y,gyroscopeUncalibrated_x,accelerometerUncalibrated_z,accelerometerUncalibrated_y,accelerometerUncalibrated_x
0.0,0.2847393802469494,-0.42076757772324175,0.37589477038440794,7.015148001712757,4.937670293745104,0.9076974188888466,1.126504617495179,1.1125603216173856,1.2438847772402526,0.44129781408624336,-0.06659957091068174,0.10255470393982889,0.20103230662797425,-0.17200322539780985,-0.6185844088648702,-1.5660861010079856,-15.239266816688621,-38.80475695236869,0.28410326203574304,180.51093043032907,,,,,,,,,,,,,7.318851430337507,4.520912858156057,1.2846050067385146,-33.357881748158,-33.1263601883598,56.8581542554109,1.1279214593308533,1.1084921049035115,1.2424664356917872,7.318851430337507,4.520912858156057,1.2846050067385146
1.0,-0.23682359366281197,-0.620879828302872,0.35466995705748994,-0.6538304284141205,8.042235454710402,5.464495460585792,0.18155717813308433,0.13240296947815927,0.2090653461625449,-0.5551692501153096,-0.7194658624063625,0.10560517802391903,0.40161721718193283,-1.687182361536687,-1.0847174236089876,0.6967920389505896,22.984125938415527,-13.780500583648681,-39.16387680053711,109.42500718309502,,,,,,,,,,,,,-0.8903094479943267,7.420828554889943,5.818639892162663,4.864875186234713,-8.103375301361083,17.40787567138672,0.18297165827733455,0.12833923167816483,0.2076508659537476,-0.8903094479943267,7.420828554889943,5.818639892162663
2.0,0.14270813040453575,0.3681719101892382,0.03607250557351839,-0.2834632359992932,7.5876252978455785,6.170663174460916,0.11107977740831819,-0.02568958409349708,-0.015470097617556652,-0.5365474580549726,-0.7121438863230687,0.08189035239903365,0.44398047263715784,-1.623746700146619,-0.9932361543178558,0.7208934397089715,27.066375923156738,-13.002750473022461,-40.72275146484375,107.67788998864566,none,false,false,false,,,,,,,,,-0.14081324186796942,7.9552592062482645,6.206245857126572,8.947500257492065,-7.324875249862671,15.84937572479248,0.11249252407373313,-0.029749878116098104,-0.016897670842488024,-0.14081324186796942,7.9552592062482645,6.206245857126572
3.0,0.08186701847480075,-0.14847737604217365,0.055712785866886085,0.1268592675834304,7.581116822686526,6.192148680734162,-0.023389974871816318,0.007434530621671145,-0.09655086552300075,-0.525069256230156,-0.7045044538998367,0.0683433269657711,0.4722140564186738,-1.574737012976467,-0.9347280293408007,0.738456118815016,26.555626220703125,-13.195500583648682,-40.491751708984374,108.0729045736216,,,,,,,,,,,,,0.20875248225350487,7.432143905375264,6.24731166764061,8.434875297546387,-7.5176252746582035,16.08187566757202,-0.02197004906777846,0.0033816829655725178,-0.097978959625384,0.20875248225350487,7.432143905375264,6.24731166764061
4.0,-0.025210535780334956,-0.35812259248090345,-0.21747151232671505,0.5005380016313318,7.984071647419649,5.633529270396513,-0.0360492645379375,-0.0016109070092366607,0.020256984883042818,-0.553462498328265,-0.6868733763694763,0.06396847072185255,0.46620747388577927,-1.4874406924434738,-0.9619974762785668,0.8463105588567024,22.689375762939452,-18.72787570953369,-39.285751495361325,115.49239053022978,none,false,false,false,,,,,,,,,0.47521913460656706,7.625441541858748,5.415560533018673,4.571625180244446,-13.048125495910645,17.28750062942505,-0.03463786707131886,-0.005661765369130116,0.018818627426619914,0.47521913460656706,7.625441541858748,5.415560533018673
5.0,-0.10654289012608847,0.026900333195629688,5.575787312913649E-4,0.22165496988938937,7.684519290924072,6.058463318513171,0.010639232200671835,0.017816460133520978,0.025225123399776398,-0.5345678181931524,-0.697693668379642,0.05356834696070983,0.4734690463778996,-1.5370937680253889,-0.922098957075931,0.7961268448593593,21.802500762939452,-15.791250686645508,-42.374626541137694,110.47264727518578,,,,,,,,,,,,,0.1150901060560626,7.710922656673016,6.058528510650786,3.6836251735687258,-10.114125423431396,14.198250541687012,0.01204962785457178,0.013755444884484653,0.023810643877944734,0.1150901060560626,7.710922656673016,6.058528510650786
6.0,-0.01327229430899024,0.16874207421342896,0.11271698701688472,-0.059738481307730955,7.943927965912164,5.717857463687074,-0.02904350495458964,0.04195906891140575,0.01904779417422034,-0.5448388778695873,-0.6994255915576336,0.05937495082616806,0.4583430205490075,-1.5457057672388412,-0.9557834010498196,0.8073576501771516,25.161376037597655,-17.42512575149536,-41.376001586914064,112.82500944795378,none,false,false,false,,,,,,,,,-0.07289118120702458,8.112132740955726,5.830057653726316,7.04137526512146,-11.746125431060792,15.196875553131104,-0.02762941120868074,0.037910906639059674,0.017621568554793212,-0.07289118120702458,8.112132740955726,5.830057653726316
7.0,-0.16947936539372227,-0.11318409096191426,0.12258882022066282,-0.1057484450169129,8.014439960517505,5.602535696312932,0.011596286687815543,-0.005332548503238376,0.018968193141725098,-0.5451964423207953,-0.7066826424976387,0.06607248420172399,0.44587968717707266,-1.5844535709607719,-0.9780877763682073,0.7807487503136739,27.14400115966797,-17.94600082397461,-39.73312644958496,114.29197804869938,,,,,,,,,,,,,-0.2751074369886134,7.900761745943882,5.724615111209379,9.026250314712524,-12.26925048828125,16.839750804901122,0.013890250399708749,-0.008780750147998333,0.018271000320091844,-0.2751074369886134,7.900761745943882,5.724615111209379
8.0,-0.013624992924651094,-0.24746410702081287,-0.246182493345045,0.05917807606359323,7.915219278896556,5.75042976585089,-0.020302818837009518,0.031252940404502785,-0.0022498777766218957,-0.5469576716423035,-0.6992019560991549,0.05507290206265216,0.4568970691339642,-1.5432217179560195,-0.9532809210758583,0.8187692393274868,25.007625999450685,-17.909250888824463,-38.21700149536133,115.11098896903515,none,false,false,false,,,,,,,,,0.045548529149599226,7.667282721575568,5.503795855185565,6.8921252584457395,-12.229875526428224,18.355875816345215,-0.01890085813333737,0.027199386669249804,-0.0036774507230695557,0.045548529149599226,7.667282721575568,5.503795855185565
9.0,0.08638997146592356,-0.2536189031630459,-0.10411339570390116,0.05093447572556278,7.98680067534494,5.658722046578284,0.004363242025016853,-0.020777475139550347,0.006371287960964854,-0.5521757171885802,-0.6990607428078605,0.05245400991032619,0.450896693338262,-1.5413952393106896,-0.9607457205800727,0.8352843257460264,21.448875732421875,-19.37025077819824,-39.647626342773435,116.0386845854888,,,,,,,,,,,,,0.1372871385278678,7.732683077897176,5.5541037332893595,3.3311251401901245,-13.695375690460205,16.92525074005127,0.005770915561346429,-0.02485210459568713,0.0049472773576727,0.1372871385278678,7.732683077897176,5.5541037332893595
10.0,-0.06246982271299131,0.09465096963971269,0.027346020043991944,0.31634931574922565,8.075622656766106,5.513918815874586,-0.02656985244111103,0.0010474265105657134,-0.003306740223813583,-0.5622394347892088,-0.6901172539767098,0.05823457792547403,0.4516725680407356,-1.4985730612979216,-0.976785770818299,0.8696870546714932,21.047625846862793,-19.2757506942749,-42.81000129699707,114.2413471925044,none,false,false,false,,,,,,,,,0.2537779551382889,8.169766589707018,5.540762043466755,2.929125126823783,-13.596750507354736,13.764000587463379,-0.025166544232371392,-0.0030088228557039708,-0.004732965952808074,0.2537779551382889,8.169766589707018,5.540762043466755
11.0,0.0159416431330587,0.17512234986418546,0.20690732101228615,0.27532834591030486,7.97755749862973,5.658982239147224,0.047761509609915834,-0.02331373773257036,-0.019187376304243754,-0.5589043250178346,-0.6872548608496638,0.06376149450050722,0.45937792440452196,-1.4872142666637307,-0.9736693973588472,0.8594598793747401,23.33025077819824,-19.105875701904296,-41.652376403808596,114.64544482865118,,,,,,,,,,,,,0.291245065481946,8.152179576382778,5.865407224928979,5.209125170707702,-13.42650053024292,14.922000579833984,0.049184156955210584,-0.02736658425909458,-0.020615470111554506,0.291245065481946,8.152179576382778,5.865407224928979
12.0,0.155208342466686,-0.22284594952475792,0.0052736203514916055,0.3130303421696904,8.165263381658816,5.378672440846761,-0.026971569170664046,0.010429779049374309,-0.012796936479086677,-0.5651702226377001,-0.6825538879516078,0.060077460336626747,0.4590573044968586,-1.462748432860655,-0.9735978210673613,0.8902776445828232,22.362750816345216,-18.97200080871582,-42.85462661743164,113.88317246522159,none,false,false,false,,,,,,,,,0.46807649114406574,7.9419048019483975,5.3835120084238985,4.243500180244446,-13.292625560760499,13.71862564086914,-0.0255561270705406,0.006368136982999596,-0.014227205969612388,0.46807649114406574,7.9419048019483975,5.3835120084238985
13.0,-0.030250432808874267,-0.3867761570139613,-0.1770308671316298,0.4348816148116078,8.009607461419437,5.600048457041825,-0.023988986111218386,0.03123564335360828,-0.041976980362456326,-0.5717370746159317,-0.6733042532854742,0.06175435640581763,0.46424391364107037,-1.4184046004078177,-0.9744292769101587,0.9236872402748258,23.72512596130371,-16.90312578201294,-41.31037658691406,112.29281175502676,,,,,,,,,,,,,0.4046049653414157,7.622311271063172,5.422605670324646,5.606625227928162,-11.225625381469726,15.262500534057617,-0.022588118979947107,0.02717054399689383,-0.04339826697170144,0.4046049653414157,7.622311271063172,5.422605670324646
14.0,0.051074117755371275,0.0493743503831473,-0.09323402096097376,0.40636667550778854,7.906774969661937,5.753907984378291,0.04821127442204777,-0.014286519886524069,0.009922916590071777,-0.5650965460375243,-0.676518998894037,0.05168027456338499,0.46911394362356146,-1.4343691538361942,-0.9495823751477634,0.9128935150071686,20.287500686645508,-16.46137575149536,-38.32725166320801,113.26273583432027,none,false,false,false,,,,,,,,,0.4573691394453978,7.955619461396161,5.660206147268707,2.169750074669719,-10.784250373840331,18.246750831604004,0.04962536726859124,-0.01835085791261757,0.008503431655174377,0.4573691394453978,7.955619461396161,5.660206147268707
15.0,-0.04255968223482665,-0.06030650643428954,0.050818972289562225,0.3277608508539229,8.179276749639229,5.358970779003483,-0.055897153600460235,0.03484331708548978,0.04102264669271979,-0.5674281616022091,-0.6758928517303845,0.07296612888279527,0.4639009204831454,-1.434926440220068,-0.988514249867732,0.8915805025856094,18.750375709533692,-16.52962577819824,-40.77937644958496,112.0658215958279,,,,,,,,,,,,,0.2851722877343545,8.118468199626054,5.409274984114241,0.6318750266730785,-10.851750354766846,15.793500709533692,-0.05449356344334855,0.030790469374065058,0.03959591681654058,0.2851722877343545,8.118468199626054,5.409274984114241
16.0,-0.12448420593236555,0.08420915609481287,0.17649183108005673,0.18076466689543688,8.072637759002985,5.519603472129972,0.0288493865872642,0.004019852727651596,-0.006081005028795963,-0.5737248028025907,-0.6804346360412299,0.07008950941848989,0.45000841833797156,-1.4515610909929462,-1.0050406122908873,0.903800648801467,21.943125801086424,-16.04325071334839,-39.53737655639648,112.09287247664332,none,false,false,false,,,,,,,,,0.056295584179643615,8.15636209413117,5.695651736621763,3.8235001516342164,-10.367625427246093,17.035875759124757,0.03024999939781778,-4.583312764617742E-5,-0.007496446183900915,0.056295584179643615,8.15636209413117,5.695651736621763
17.0,-0.02112045384007552,-0.2791249603770747,-0.13574788984980915,0.1233603171450962,8.070054120356493,5.5314563949509425,0.0037084152267342157,0.010349257816883301,0.035031188509915726,-0.5707801958121875,-0.6864850633215196,0.05672731671002832,0.4464924161386962,-1.4785239070948988,-0.9870634946492639,0.9016069102995466,23.610000953674316,-15.719625606536866,-36.81787651062012,113.16474707861555,,,,,,,,,,,,,0.10225247925765223,7.7904330574639955,5.395161657050105,5.4930001902580265,-10.040625419616699,19.755750846862792,0.0051188116551994685,0.006288242148290766,0.03360309471182599,0.10225247925765223,7.7904330574639955,5.395161657050105
18.0,0.032904421490635355,-0.25746990564991445,-0.16058905115898917,0.20038908847010473,8.070243760651232,5.533361897749059,-0.008245956102459161,-4.286765002225544E-4,0.001656739808180753,-0.5691060213481679,-0.6870808174797133,0.05170618607571312,0.448408591688848,-1.4806381230260812,-0.9765552679697672,0.9031496538835413,22.285125732421875,-15.912375679016113,-38.69812637329102,112.35955355219753,none,false,false,false,,,,,,,,,0.23334412944192687,7.8122871296078555,5.372260577538434,4.1658751583099365,-10.234500408172607,17.874000816345216,-0.006833210299887201,-0.004493014978281423,2.426463909739373E-4,0.23334412944192687,7.8122871296078555,5.372260577538434
19.0,0.07767794461345628,0.13207176064743714,-0.0011588542849994173,0.37725104926657343,7.893019017051248,5.765115822062773,-0.014801471078695328,-0.0034927694976110667,-0.020765196326572227,-0.57104672053281,-0.6743377248446146,0.04924120586000237,0.4650842740255244,-1.422515822391884,-0.9548365970452627,0.9357353717673058,21.36975082397461,-15.849375705718995,-40.75087646484375,111.24566807530607,,,,,,,,,,,,,0.4548029638826847,8.024550405203128,5.763462022239087,3.250125136375427,-10.17150040626526,15.821625652313232,-0.01340085799878865,-0.007542279361765466,-0.022187377011184308,0.4548029638826847,8.024550405203128,5.763462022239087
20.0,0.06999825322677815,0.11900486280717472,0.08100419923072995,0.5866016826804469,7.993019439206265,5.617356446709963,0.03414356402388894,0.007802104250076089,-0.013430073359372591,-0.579764720827046,-0.6684760132638534,0.055141445691927825,0.46229467031979327,-1.3924428248169398,-0.9724029515049245,0.9631909515598033,20.997750663757323,-19.428000869750978,-39.85875160217285,115.9976889976216,none,false,false,false,,,,,,,,,0.6564549848363541,8.111554820938865,5.697915129142232,2.8803751242160796,-13.750500621795654,16.7130006980896,0.037518249889835716,0.005755750574171543,-0.012600500225089491,0.6564549848363541,8.111554820938865,5.697915129142232
21.0,0.13083791685760907,0.05948501421452159,0.1077993007948493,0.37449528654981956,7.851348097961728,5.825153992907835,0.00709554407339875,-0.03745717826382358,0.003565470503624713,-0.579734990502348,-0.6703420954175515,0.038767415587559785,0.4612068707990174,-1.401544457615012,-0.949670945063676,0.9790844386166865,17.622000675201416,-15.129375572204589,-39.06375152587891,111.1772638951635,,,,,,,,,,,,,0.504135319433522,7.893578351712694,5.918484101108477,-0.4995000173896551,-9.451125392913818,17.511000900268556,0.008500495127927844,-0.0415059409316371,0.002136014876794992,0.505225272775434,7.91032615510544,5.93243938625449
22.0,0.07729849672304595,-0.4385346607627845,-0.30253664654965445,0.5262715660929995,7.733751613314789,5.970648708910045,0.014291831273769979,8.576751990926148E-5,-0.07340321760845951,-0.5805970914293044,-0.6660747120876124,0.0247889008317696,0.4670251185941224,-1.386467152302808,-0.9218420309595542,1.0036621335709448,17.364000568389894,-13.257750606536865,-39.90487655639649,108.38268772427396,none,false,false,false,,,,,,,,,0.6034544848348244,7.294700811404993,5.667619565925976,-0.7541250343620777,-7.578750295639038,16.66837568283081,0.015703589429544047,-0.003979331675437417,-0.07483539593378359,0.6034544848348244,7.294700811404993,5.667619565925976
23.0,-0.11350221639754725,0.02021326840508218,-0.08567871748670644,0.5031284107461426,7.679113617130354,6.03249358663372,-0.01198946082434964,0.009168014724684112,0.021870587952435017,-0.5729626393785664,-0.6721949752639321,0.02018340224601036,0.46816479546182294,-1.4151389283292435,-0.9095896120164909,0.9789099816013785,19.1475008392334,-12.243750457763673,-39.97012649536133,107.0301661428841,,,,,,,,,,,,,0.3894853202772199,7.698822414173799,5.946345866895189,1.026750037074089,-6.565125274658203,16.60162572860718,-0.010580759372233468,0.005117156866974398,0.02043492689400035,0.3894853202772199,7.698822414173799,5.946345866895189
24.0,-0.12500133080463302,0.10725660377993516,0.2532934068822035,0.3900049101926691,7.7436244180887055,5.966263298941131,0.04193613857104637,0.01094690579828797,0.038414231132679055,-0.5717864184096308,-0.6772549028443818,0.027235890932307386,0.4620072853447187,-1.4353217594694383,-0.9267929326189627,0.9596021494062821,20.931750717163087,-13.075125541687012,-41.629126358032224,107.43993851236345,none,false,false,false,,,,,,,,,0.26492526202398065,7.850358811935576,6.219073059535263,2.814375112056732,-7.3961252784729,14.943375587463379,0.04335198049793149,0.006891336992825612,0.03699022227676936,0.26492526202398065,7.850358811935576,6.219073059535263
25.0,-0.08326887215177219,-0.09018112288094034,0.08199391848243334,0.3877804012605053,7.634043600044999,6.114554372488284,0.01581115219924672,0.024694730276607124,0.004935171076224423,-0.5696255815964119,-0.6786703338810042,0.01334648045674697,0.4632446681167565,-1.443402559149499,-0.9036192309622672,0.968747580168294,24.038251037597657,-11.86387544631958,-39.988126602172855,106.51641684177065,,,,,,,,,,,,,0.3044191314793174,7.543344502355538,6.196054708723929,5.92125020980835,-6.184875268936157,16.585125732421876,0.017223896723532795,0.020635784179081813,0.003508946196376985,0.3044191314793174,7.543344502355538,6.196054708723929
26.0,-0.09680596974969376,-0.3481324416399002,-0.37249283080454915,0.2079029904305935,7.5359499597549435,6.246175312995911,-0.02897537501063198,-0.01400850062724203,0.03779325020499527,-0.5703043824434281,-0.6878005480766296,-0.009513999877381139,0.4482545891404152,-1.4862587058544159,-0.8888671487569809,0.9842040449380874,21.834000873565675,-13.180125522613526,-34.69012641906738,110.87776418013748,none,false,false,false,,,,,,,,,0.11101650038734079,7.187302837371826,5.8731932663917545,3.7143751487135885,-7.500000286102295,21.88387580871582,-0.02757149865385145,-0.01806749902665615,0.03635774972848594,0.11101650038734079,7.187302837371826,5.8731932663917545
27.0,-0.002824336253837043,0.1308492127367679,0.023886067391026253,0.1962130581229633,7.7074401098139145,6.01299617804733,-0.06271617614901533,-0.01468688688770521,0.010815318427322543,-0.563683792072184,-0.690316866425907,0.024455646819928113,0.45257435329988893,-1.4947292793030833,-0.9281361903630051,0.9197833234188604,12.535875549316406,-12.184500484466552,-36.13575180053711,108.63553315441835,,,,,,,,,,,,,0.1933338347749383,7.837756255093743,6.036404698502784,-5.581125221252441,-6.5077502727508545,20.43675079345703,-0.06129938646164887,-0.01876066183653094,0.009390441111891586,0.1933338347749383,7.837756255093743,6.036404698502784
28.0,0.014469676014810506,0.11222786726522269,0.09396442788477877,0.1432417028463713,7.803962750009971,5.901738289559241,0.056385890917280815,-0.022985643536626996,0.0026724008096400465,-0.5742419356166726,-0.6915288130835732,0.014285673221226293,0.43744627910085243,-1.4985360461886565,-0.9389655141547175,0.957472562789917,7.720875301361084,-16.8292506980896,-37.183501358032224,114.41941446856247,none,false,false,false,,,,,,,,,0.15772277989083588,7.915702347708221,5.995179483205965,-10.399125452041625,-11.152125453948974,19.390500755310057,0.057797649045391836,-0.027042574244597467,0.001251113919153957,0.15772277989083588,7.915702347708221,5.995179483205965
29.0,0.19608265638132305,-0.0901195554464471,0.05458890201122153,0.03941720661561133,7.887377458460191,5.785867826611388,-0.04350796587053029,0.002032842633186602,-0.044758945584808495,-0.5782862819877326,-0.6896814908467087,0.021125784344679,0.43465735777920367,-1.4878932366184159,-0.9548700317448261,0.9634690050985298,11.593125467300416,-13.69462553024292,-48.36900207519531,105.83384635106717,,,,,,,,,,,,,0.2354691248368837,7.796760643229765,5.839941454868691,-6.524250252246857,-8.017125339508057,8.205000276565551,-0.0420979165572527,-0.0020355392092218003,-0.04619191145049591,0.2354691248368837,7.796760643229765,5.839941454868691
30.0,-0.008674178414512426,-0.43606763675808907,-0.23438761733472346,0.3258953903906513,8.116126594543458,5.45287344455719,-0.0463783415403254,0.016751856257272237,-0.02487524786484566,-0.5929824405908585,-0.6767228907346725,0.033785489909350874,0.43461658924818036,-1.4228671658039094,-0.9829504191875458,1.011917632818222,21.796500701904296,-13.574625587463379,-44.04225151062012,107.18986750894655,none,false,false,false,,,,,,,,,0.3240326897490143,7.664177587716886,5.2102264815037795,3.677250165939331,-7.8960003089904784,12.530250511169434,-0.04631274958141148,0.01547012490220368,-0.027457374674268068,0.3240326897490143,7.664177587716886,5.2102264815037795
31.0,-0.04733727559191631,0.12436062115810666,0.015724864039643138,-0.0035381268244236708,8.000773677638932,5.634714799768784,-0.01563995088651484,-0.0390877442744871,0.0049284311358396915,-0.5859331640542722,-0.6882425856356528,0.02899860767830236,0.42640046220199734,-1.479192572481492,-0.9815198603798362,0.9758936049891453,25.231501121520996,-15.552000560760497,-39.83662643432617,111.31987473808617,,,,,,,,,,,,,-0.0508294118312644,8.124641568053002,5.64996791119669,7.112250308990479,-9.875250368118285,16.738125743865968,-0.014227205905698094,-0.04315747575852655,0.0035049019646191714,-0.0508294118312644,8.124641568053002,5.64996791119669
32.0,0.0803312778814078,0.15512035084464174,0.03485435561857896,0.12585858359591723,8.097550552670318,5.500244334192559,0.03463502491520035,0.05560717774591971,0.003108045164643243,-0.5981740261068439,-0.6820261384000873,0.022714762432076555,0.4195614241727508,-1.4457613383189287,-0.9886597625099787,1.0305150292887546,25.11937602996826,-18.677250862121582,-37.618126220703125,116.39864547812111,none,false,false,false,,,,,,,,,0.20613862413654824,8.25214941666858,5.534590374125113,7.0005002689361575,-12.999375610351562,18.956250801086426,0.03604269693928337,0.05155569264241079,0.0016881187243553081,0.20613862413654824,8.25214941666858,5.534590374125113
33.0,-0.10864907999833424,-0.141701329914926,0.09620706393730406,0.20924742189327292,7.908044698191624,5.766009517744476,0.03250796514490217,0.019310662262689543,0.0020207120744767143,-0.5914062401827644,-0.679775123502694,0.01705405881683178,0.43302985967374313,-1.4391155640284221,-0.959543882631788,1.0218486528770596,19.71450080871582,-19.1812508392334,-38.563876419067384,116.46559003773474,,,,,,,,,,,,,0.10065735587462162,7.765807684730081,5.861713521620807,1.5956250710040332,-13.502625503540038,18.009375762939452,0.033913970646430175,0.015250367377245543,5.95833302712908E-4,0.10065735587462162,7.765807684730081,5.861713521620807
34.0,-0.10456309132773595,-0.35449639809234895,-0.25550539602553196,0.650125080037235,8.005964217799725,5.587611307011972,-0.03377462849758639,0.014500123342628232,0.0031271037682522053,-0.6008928217510185,-0.6673872411841213,0.017933821729799307,0.439387853192811,-1.3809162803215556,-0.9576430745644144,1.0685147648990745,15.426750640869141,-18.761625747680664,-41.2702515411377,114.4486448273571,none,false,false,false,,,,,,,,,0.5453955671279738,7.651041479393987,5.331588372145549,-2.6902501153945924,-13.084875564575196,15.30187557220459,-0.032365593731882844,0.010436385860758842,0.001713985355921311,0.5453955671279738,7.651041479393987,5.331588372145549
35.0,0.08888922814581104,0.020344452348117735,-0.12424269846330087,0.5000260614826545,8.009135704414517,5.595932259279139,-0.014545342291467915,-0.05981923988107227,9.705878008960508E-4,-0.6014038090612374,-0.6712243334919799,0.015135607782605231,0.432523030276392,-1.3987026471717685,-0.9626132664727229,1.0663576581898857,15.602250633239747,-18.484875717163085,-42.741751480102536,113.38759352036857,,,,,,,,,,,,,0.5888103235960372,8.028951878641166,5.4712458474963315,-2.5177500937879085,-12.807750568389892,13.83037561416626,-0.011825000267881568,-0.06675693058952836,-0.001068688504914246,0.5888103235960372,8.028951878641166,5.4712458474963315
36.0,0.035325355606504,0.20008576652588378,0.1432165900374403,0.5837957742785352,8.041040486628466,5.5342592862573,-0.00942351499406418,0.026146782197906535,0.015300618936446044,-0.5892933170394142,-0.6669383792593928,0.05136577205935327,0.45291109751946856,-1.3802644427460018,-0.983656655443777,0.997852107085804,17.53237557411194,-19.61925078511238,-42.30337643623352,114.25277972730548,none,false,false,false,,,,,,,,,0.62929352575331,8.234538397789002,5.699818758964539,-0.5846250057220459,-13.94100061416626,14.267625522613525,-0.008582750000059605,0.022954249582253398,0.013960374426096678,0.62929352575331,8.234538397789002,5.699818758964539
37.0,0.22407106174539557,-0.18497406165389454,0.1859584449534761,0.39911542992180615,8.119011631198958,5.431054989496867,0.011843873639864957,-0.007212009901801745,-0.01644877452567658,-0.5823843058417825,-0.66925530573901,0.06238064699459309,0.4568432747733359,-1.3947265685773362,-0.9911498076775495,0.9603831680381999,18.746625709533692,-20.012250747680664,-43.02712646484375,114.94995742516585,,,,,,,,,,,,,0.6230264982829491,7.933479776569441,5.616520858278461,0.6296250251680613,-14.334000549316407,13.547625598907471,0.013248529225843502,-0.011276347275056383,-0.01786691117940434,0.6230264982829491,7.933479776569441,5.616520858278461
38.0,-0.0920729205279731,-0.36410741408420083,-0.34397294372320175,0.3175353735897432,8.270792101869489,5.225123193004344,-0.048296534184292694,-0.04249839083577442,-0.04605705422893314,-0.5958666211307639,-0.669279702229075,0.05899935669385561,0.4395902091913884,-1.385722821301753,-1.0153257191771328,1.005043124798501,21.606750717163084,-19.625625762939453,-41.918626403808595,115.11136154292979,none,false,false,false,,,,,,,,,0.22544852909770344,7.906129043881256,4.880603702941744,3.487875130176544,-13.947750549316407,14.656500606536865,-0.046883415573709966,-0.04655940577129621,-0.04748242569736915,0.22544852909770344,7.906129043881256,4.880603702941744
39.0,-0.017794377664697592,0.0032040732136617103,0.00612022853730356,0.2283657082246945,8.136202096939087,5.430547101824891,0.0038176474398842046,0.033118628216542156,0.014792034580536625,-0.5831000839962679,-0.6750589246843376,0.05776400966387169,0.4476858216757868,-1.4198273432021047,-0.995580396231483,0.957753810228086,20.74837585449219,-17.973375854492186,-38.74087669372559,114.87656604049408,,,,,,,,,,,,,0.21068677410264225,8.1389195171057,5.436212007905922,2.629500099569559,-12.295875492095947,17.83125087738037,0.005230392877231626,0.02906102895298425,0.013364460328411237,0.21068677410264225,8.1389195171057,5.436212007905922
40.0,0.09373726011691892,0.10239926910046304,0.1611370468272431,0.2250788877948676,8.239476591053576,5.267569867691191,0.034997152178409964,0.03514962923703807,0.016414232155547874,-0.589937427846512,-0.6731541788223947,0.060469662862839085,0.4414017778812068,-1.4074227798103105,-1.0116624011851774,0.9777443273232715,16.302000732421874,-17.052750759124756,-37.40700134277344,114.49180410616673,none,false,false,false,,,,,,,,,0.3187307104615882,8.341409787093058,5.4281705523481465,-1.8153750752657651,-11.373000392913818,19.166625785827637,0.03639802035626651,0.03109814306389135,0.014988861996496078,0.3187307104615882,8.341409787093058,5.4281705523481465
41.0,-0.17578931138097473,-0.08811718503049776,0.14097403815271808,0.1441621388874802,8.250222117293115,5.245953232634301,-0.001929043974800437,0.012632474586294563,0.030868750298395753,-0.5920867772385625,-0.6773916671771815,0.05263190130048459,0.43301265517083726,-1.4264774393327166,-1.011790934175548,0.9843611563786422,11.757375450134278,-13.891125545501708,-38.55937644958496,109.90924709591788,,,,,,,,,,,,,-0.031592645431302635,8.161569501839432,5.386419388593412,-6.3607502365112305,-8.213625307083129,18.013125801086424,0.002609777006108572,0.013253093494268337,0.030040346334992658,-0.031592645431302635,8.161569501839432,5.386419388593412
42.0,-0.05851334683818392,-0.4092783990989227,-0.28991530253782427,0.25586083981826313,8.16787289628888,5.385911346662162,-0.03333626210339146,-0.01738217773174148,-0.016957425825887978,-0.5938319711401912,-0.674658462552741,0.03949489092251452,0.43630871294748663,-1.412610107129163,-0.9896812403556143,1.0112741506925904,18.19162565231323,-14.341125602722167,-40.09725128173828,109.69196659103147,none,false,false,false,,,,,,,,,0.19737030783354645,7.7581518286525615,5.095463101226504,0.07462500907480717,-8.662875328063965,16.475250835418702,-0.0319272274483401,-0.021448637331181235,-0.01837871262416391,0.19737030783354645,7.7581518286525615,5.095463101226504
43.0,-0.02502549065313503,-0.002869239332629185,-0.0961905648502722,0.5267371675912657,8.175701576120714,5.333357497757556,-0.01115906907829876,-0.026298896414136477,0.013779657851795064,-0.6046672948435241,-0.6632137456360985,0.044927058960585034,0.4383221245279499,-1.3540134523429124,-0.9997454531052533,1.0592689186918969,19.782750778198242,-15.571875686645507,-39.89287658691406,111.3139760351266,,,,,,,,,,,,,0.5016029641744407,8.172297435648302,5.236656132866354,1.6661250551044942,-9.894375419616699,16.680000686645506,-0.009753063805036101,-0.030344362626327018,0.01234534312057875,0.5016029641744407,8.172297435648302,5.236656132866354
44.0,0.04483488866930256,0.23113063424087987,0.020010438837608932,0.4149358127090969,8.115747234608868,5.445677686445784,0.0029405937299574955,-0.045305569637751224,-0.030211881766704345,-0.6060552939329997,-0.6654212268272249,0.03989522799038061,0.43336669259732313,-1.3645087858237843,-0.9998986744644618,1.0644216313220487,19.961625709533692,-17.794875736236573,-36.15262641906738,116.27743920478778,none,false,false,false,,,,,,,,,0.45966239553867,8.346356812089976,5.465155202563446,1.8427500800788403,-12.116250457763671,20.418750839233397,0.004357797508635144,-0.049354331839903454,-0.031633167633657706,0.45966239553867,8.346356812089976,5.465155202563446
45.0,0.1175472676537304,-0.02159712530008637,0.03696849289359433,0.3665216731813524,8.327629939164266,5.129267716171718,0.018069117978288262,-0.0016863968807692622,-0.015367647747089173,-0.6190948356496225,-0.6645309299525648,0.03322063342179402,0.4169715141305829,-1.3513869519280914,-1.0171091231969323,1.1155611972997683,16.368750762939452,-14.432625617980957,-35.91862663269043,111.89154899541998,,,,,,,,,,,,,0.4953191483429834,8.33125184096542,5.204314957646763,-1.7497500872612,-8.754750328063965,20.65462574005127,0.017266460260984922,-0.007787129002632481,-0.01753873732586456,0.4839460700750351,8.30554194969706,5.16573441028595
46.0,0.14125964183032994,-0.45009283715914383,-0.10541638972624989,0.39119309783535133,8.176352500915527,5.354338636492739,0.014118936272467127,0.027630692818155972,-0.04601893499309179,-0.604551372551682,-0.6600759672646476,0.036606336362881235,0.443614401439629,-1.343101163901905,-0.9811548189361496,1.0725427346654457,16.259250621795655,-14.76112564086914,-35.86387641906738,112.38562689570291,none,false,false,false,,,,,,,,,0.5323782414197922,7.725737005177111,5.248382937790144,-1.8585000737011432,-9.081375370025635,20.708625869750975,0.01552660818589796,0.0235819292282409,-0.04745519824215386,0.5323782414197922,7.725737005177111,5.248382937790144
47.0,-0.044436408645089936,-0.1847400215417877,-0.0907604432135236,0.38615319613303406,8.124082453110638,5.444308500663907,-0.0361328434619103,-0.004259805039813121,0.011090319151716196,-0.6018944300857245,-0.657405122238047,0.043627078371012915,0.45087267750618504,-1.3320434116849713,-0.9809092511149013,1.061205577616598,15.269625587463379,-16.840125808715822,-37.58775154113769,114.13939710698183,,,,,,,,,,,,,0.3416911906553615,7.9388342090681485,5.353076747819489,-2.850375118255615,-11.16262544631958,18.98550075531006,-0.03471874925947072,-0.00832414312525561,0.009666789167871078,0.3416911906553615,7.9388342090681485,5.353076747819489
48.0,0.03742449827492237,0.1311033665575087,0.23837900098413228,0.5435025534122297,8.1659675730337,5.369533524654879,0.030424257606673655,0.06291101483333081,-0.005382920785963831,-0.6039116954803467,-0.6530338770151138,0.045740589760243894,0.4540167796611786,-1.3114618039131165,-0.9805418801307678,1.0731822121143342,13.601625442504883,-17.16112575531006,-37.725376739501954,114.46122445060895,none,false,false,false,,,,,,,,,0.565219332251956,8.297672200911116,5.5870784816175405,-4.516875166893005,-11.482875423431397,18.849000778198242,0.032019625143148,0.059482499840669334,-0.007144499756395817,0.565219332251956,8.297672200911116,5.5870784816175405
49.0,-0.11300036362281032,0.04113239405548894,0.11271888364617731,0.7964898162320548,8.12261570668688,5.39622301681369,0.03305931314917318,0.033904534604802146,0.02866335677476052,-0.5961185851517845,-0.6488118691771638,0.05862715628509428,0.4690735404397927,-1.2973026960503822,-0.9766674953348496,1.042426942025914,7.818750305175781,-14.134125595092774,-39.56062660217285,109.74526220212606,,,,,,,,,,,,,0.6832117944974087,8.163282745024738,5.5084355274836225,-10.298625373840332,-8.456250314712525,17.01187566757202,0.03446936140786491,0.029841543554200555,0.02724252413392213,0.6832117944974087,8.163282745024738,5.5084355274836225
50.0,-0.17188900935989204,-0.28460625511833865,-0.1475902249907503,0.79212421916499,8.114175843720389,5.41550077306162,-0.0402575494205155,0.0024532177301105295,0.00917710426106754,-0.5970787152205363,-0.6488498006716813,0.05822498989429804,0.4677647738763602,-1.2969888318883311,-0.9782856065447968,1.0456768132672452,13.041750583648682,-12.984375534057618,-39.327751312255856,108.31503427028896,none,false,false,false,,,,,,,,,0.6200703258653826,7.8290914403329985,5.267406192156348,-5.076750211715698,-7.305375318527222,17.24475076675415,-0.03885123654185693,-0.0016077977771142332,0.007758539783224316,0.6200703258653826,7.8290914403329985,5.267406192156348
51.0,0.08079347785964024,-0.25689342134066073,-0.21518338803092346,0.7523622715882227,8.08161530307695,5.481105243458467,0.005905760233016575,-0.05917487728099028,-0.03395171603644449,-0.6007723451829424,-0.652960201104482,0.04224545084962658,0.4587714797725864,-1.31479386956084,-0.967882471926072,1.0664217296768637,12.870375518798829,-13.639500598907471,-37.433626327514645,110.04751692459683,,,,,,,,,,,,,0.8329309215403947,7.824179794274125,5.265420848248052,-5.248125152587891,-7.961625347137451,19.141125755310057,0.007319852874121245,-0.06322303961268534,-0.035371200797860235,0.8329309215403947,7.824179794274125,5.265420848248052
52.0,-0.028450049358503062,0.2670936089488539,0.0583270100904352,0.9704441041639535,7.9971457519153555,5.5571818304534,-0.0017616330221811734,-0.044017697315626214,-0.028725247014092632,-0.6115890700038117,-0.6447467644615928,0.029976970082757497,0.4572257930689519,-1.278216547305041,-0.9547757789640143,1.1234811308360335,15.66450065612793,-14.708250579833985,-40.37362640380859,110.01977565772727,none,false,false,false,,,,,,,,,0.9418025246941217,8.263718680580064,5.614988846353965,-2.4547501001507044,-9.030750370025634,16.197750797271727,-3.4170756854190687E-4,-0.0480759902857244,-0.030154703134246688,0.9418025246941217,8.263718680580064,5.614988846353965
53.0,0.04311656815858156,0.11106569714177691,0.016533274787898157,0.734806294169496,8.056743341333727,5.502290987500958,1.5232787357971947E-4,0.013923896467495783,0.01318112721520604,-0.6027176906080807,-0.6489116520273919,0.04435467654291321,0.46199069595804404,-1.296162303756265,-0.967319086486218,1.076525744269876,20.142375831604003,-15.168375587463379,-39.51712669372559,111.02498422707103,,,,,,,,,,,,,0.7777118033857322,8.167350357654048,5.518351719659917,2.0235000845789908,-9.490125465393067,17.054625701904296,0.0015691174239869795,0.009863601664227306,0.011750857738376247,0.7777118033857322,8.167350357654048,5.518351719659917
54.0,0.16069601028260982,-0.3377837266170365,0.044838007294696156,0.5236854313338614,8.10464370951933,5.461944379058539,0.011648407498118924,-0.013178431479187281,0.008677328110435138,-0.6001670004106036,-0.6509672549425387,0.04938396029904777,0.4618016802797131,-1.3054420854531081,-0.9742634208763347,1.0603917837142944,20.998875732421876,-15.23250057220459,-37.20637634277344,112.26959037181776,none,false,false,false,,,,,,,,,0.6841529757743153,7.766375373391544,5.506245867878783,2.8785001254081726,-9.555000314712524,19.36800090789795,0.013065195587628028,-0.017229289236460246,0.007252451210447094,0.6841529757743153,7.766375373391544,5.506245867878783
55.0,-0.04789209552224504,-0.3421827905746822,-0.15434820820937062,0.5270067503915565,8.257496423060351,5.209925816790892,-0.07548477668038542,0.018532549353814362,-0.03913712860684436,-0.6041118119022634,-0.6503028450625958,0.05513150499451278,0.4569645822048187,-1.296676740787997,-0.9903360988834117,1.0697773222876068,18.196875743865967,-15.766500511169433,-36.19800178527832,113.4910092408195,,,,,,,,,,,,,0.4790168546628908,7.914827611186717,5.055142802767234,0.07875000551342964,-10.086375389099121,20.374875831604005,-0.07407710388173709,0.014470173668411404,-0.04055705424490394,0.4790168546628908,7.914827611186717,5.055142802767234
56.0,-0.04951836191136025,-0.05162427793530857,0.11680351292677954,0.5152217542305223,8.26675566037496,5.200219855589025,0.04461335759226452,-0.03185551453326993,0.021114338362845136,-0.6005952673799851,-0.6546692491746416,0.05897531435624057,0.45489734323585734,-1.3176523902836967,-0.997526569109337,1.0468073744399875,18.20550067901611,-18.121875762939453,-39.31875152587891,114.76724454875644,none,false,false,false,,,,,,,,,0.46560737545780073,8.21461802370408,5.316504656099806,0.08850000202655792,-12.444750480651855,17.25337568283081,0.046015317729838634,-0.03593602866463948,0.019694852382492495,0.46560737545780073,8.21461802370408,5.316504656099806
57.0,0.024628739084790248,0.16683812804593898,0.07363339934018578,0.48264838546620553,7.975695661979146,5.642245811991172,0.04633886195110655,0.0027881190826249593,-0.001324628696472633,-0.5945639645699228,-0.6600227291041082,0.034420247641530365,0.45760178034848503,-1.3498087401437286,-0.9550690320458742,1.0442617494280975,20.915625762939452,-18.163875770568847,-40.33087631225586,114.24368542399868,,,,,,,,,,,,,0.5071619152008454,8.142046427962804,5.715362626727265,2.7967501044273377,-12.48525053024292,16.24237573623657,0.0477547040116964,-0.0012715352966570029,-0.0027554444553754705,0.5071619152008454,8.142046427962804,5.715362626727265
58.0,-0.16084967396454886,0.032499181216253954,0.07735130671119574,0.23642541098353617,8.23450857517766,5.273497221516628,-0.06705821041638653,0.07638664188447829,0.01587046564593181,-0.5971499067895553,-0.6634027607300702,0.05115310747322498,0.44667251758715687,-1.362163038814769,-0.9951870125882766,1.0274097498725443,21.566625900268555,-20.004000854492187,-39.21300132751465,117.02826326619615,none,false,false,false,,,,,,,,,0.07554853324066191,8.266479796054316,5.350325259507871,3.4458751273155213,-14.326125583648682,17.359125785827636,-0.06564951039321136,0.07232769597413055,0.014448284892840129,0.07554853324066191,8.266479796054316,5.350325259507871
59.0,-0.10913592237647217,-0.39609262224351344,-0.11314302495171288,0.429469219196846,8.403195201760472,4.990832177719267,0.0012919551803555228,-0.01142339064453793,0.029852474527894565,-0.5989620304107666,-0.6633189296722413,0.06951282978057861,0.442819681763649,-1.3554889869689941,-1.0280366903543472,1.0149650478363037,20.66962574005127,-20.925000801086426,-39.199126434326175,118.09238303725078,,,,,,,,,,,,,0.32029010947461767,8.006574149178986,4.877178960507459,2.54850009560585,-15.246750698089599,17.373000679016112,0.0025712495716288686,-0.013007499128580093,0.028170999619178475,0.32029010947461767,8.006574149178986,4.877178960507459
60.0,-0.07441092844066374,-0.23213279289284758,-0.24380038119852543,0.6178816459004712,8.365365682863722,5.032108853845036,-0.027191298164646414,0.003433456265495396,0.006626960264482335,-0.6032067414592294,-0.6587869671045565,0.06752029379062793,0.4440939622182472,-1.3317711142932667,-1.0251771673267962,1.039464315363005,19.56600082397461,-20.16637577056885,-38.69400138854981,117.53256606739589,none,false,false,false,,,,,,,,,0.5433485580416506,8.132766592736338,4.787819343454697,1.4478750574588775,-14.488125610351563,17.877375869750978,-0.025785293407263418,-6.295339816122078E-4,0.005199387614779612,0.5433485580416506,8.132766592736338,4.787819343454697
61.0,0.07782596943203803,0.11664852597704618,0.044933852103382056,0.5393986140774323,8.380287340371916,5.033164189593626,0.022973392144915197,-0.0024818056539660043,0.0024504940357464966,-0.5977986685120233,-0.6565682315590358,0.07738744585525871,0.45286689123304763,-1.3253853816797239,-1.0263000514247629,1.0162821205535737,17.90662580490112,-18.937875862121583,-40.26300163269043,115.20192133565479,,,,,,,,,,,,,0.6170257689041722,8.496386584669057,5.0776368485819,-0.21337501861155034,-13.26150047302246,16.308375625610353,0.024376979295975796,-0.00654282050649866,0.0010360158832356482,0.6170257689041722,8.496386584669057,5.0776368485819
62.0,0.05378084139288951,0.06077826373717364,0.060307646791140236,0.6228308541079363,8.33570862751381,5.096321933409747,0.014262254628371083,-0.032652205988472585,-0.014848652231853967,-0.6027129245739357,-0.6536342115963206,0.07027400051261865,0.4515893827466404,-1.309416974292082,-1.01936296154471,1.0447634750721502,20.999250831604005,-19.940625801086426,-40.0740013885498,116.47722576529515,none,false,false,false,,,,,,,,,0.6764294475079605,8.395922455133176,5.156131124963947,2.8781251537799837,-14.263125610351562,16.498875675201415,0.015683087922048335,-0.036720588273715736,-0.016264091834754628,0.6764294475079605,8.395922455133176,5.156131124963947
63.0,0.13987662356420613,0.001686720836833857,0.13559937831198815,0.6072321779043921,8.413037394533063,4.947145074901014,-0.019105692841297033,-0.0126200495287776,0.00430470355094807,-0.6025449486062078,-0.6518641025713174,0.08025230666493426,0.4529835847344729,-1.3004448402045976,-1.032265591739428,1.037257159700488,21.061125679016115,-20.513625831604003,-39.53925140380859,117.42966328034973,,,,,,,,,,,,,0.7469629048966886,8.414180613980434,5.082248265200322,2.940000114440918,-14.835375633239746,17.034375648498536,-0.017684405591191336,-0.0166824251219704,0.002883415074447299,0.7469629048966886,8.414180613980434,5.082248265200322
64.0,-0.030324589018253426,-0.47123108060993985,-0.27693934479326593,0.48938486371965456,8.265461047490438,5.222120668373856,0.01614277013668827,-0.04596813781844342,-0.057685294215950894,-0.6007967503631816,-0.6595643256224838,0.0597158225947151,0.44735466411300734,-1.3389454320365308,-1.0087843882102592,1.0376459681520276,21.829500732421874,-20.050875663757324,-38.8548762512207,117.30288369544391,none,false,false,false,,,,,,,,,0.45893679223224226,7.793715051576203,4.944736997286479,3.7113751363754273,-14.373000545501709,17.7168758392334,0.017539337834379838,-0.05002438782385605,-0.05911017099267566,0.45893679223224226,7.793715051576203,4.944736997286479
65.0,-0.03479678547102036,-0.062075410665261864,-0.1201374362600912,0.367480662342456,8.067471027374268,5.522934101595737,-0.005999628837118939,0.050307302030338216,0.0037655955650797573,-0.5870739923845424,-0.6619957124832834,0.05315252459875428,0.46226133656973883,-1.3607298241983545,-0.972928513394724,0.9981770297088245,21.216750869750978,-18.56775085449219,-39.83250175476074,114.99716561495308,,,,,,,,,,,,,0.33272674508245276,8.004904841432477,5.402315607165346,3.099375129938126,-12.889125576019287,16.740000667572023,-0.004574257405566992,0.046243563469610005,0.002345668198079756,0.33272674508245276,8.004904841432477,5.402315607165346
66.0,0.02936308790801787,0.15383998250050068,0.21035408382030094,0.32772900556971996,8.196920792261759,5.320652826159608,-0.001317034822468664,0.007083945866564617,0.019786519450409448,-0.5914331697950176,-0.662491531348696,0.06615336283164866,0.4545858844238169,-1.3586061561808866,-1.004450666553834,0.9957669207862779,19.710750846862794,-19.95487575531006,-38.94525146484375,117.13063762588375,none,false,false,false,,,,,,,,,0.3570514884640408,8.350273945752312,5.530457592477985,1.5922500704973936,-14.277000484466553,17.627625732421876,9.571208490752706E-5,0.0030142149851456576,0.01836433823165648,0.3570514884640408,8.350273945752312,5.530457592477985
67.0,-0.14567892571984983,0.13438181520098508,-0.057061343149531006,0.32693019923569616,8.372937089145774,5.046570730681466,-0.0335323021212353,0.0014784656474274573,0.012927722752942601,-0.5943594250348535,-0.6707568381092336,0.07449004972482672,0.4369734162741368,-1.3956337411804955,-1.0400375835966356,0.977575395366933,18.58500072479248,-21.450750846862793,-38.23162651062012,119.29419599258557,,,,,,,,,,,,,0.18126386878919779,8.506855365073326,4.989004691048424,0.46462501719594,-15.772875537872315,18.34162582397461,-0.03211101474664589,-0.0025825492235472297,0.01149690602122262,0.18126386878919779,8.506855365073326,4.989004691048424
68.0,-0.2756277630744758,-0.2556073128190987,0.09002846311412606,0.1838851171527423,8.474588497012268,4.87369678067226,-0.029158088602308257,0.039509681528251545,0.046038235437271056,-0.5945539356458305,-0.6733786800120136,0.07669122716282854,0.43199294953062983,-1.4083900758535555,-1.0496085020575192,0.970190441844487,17.47950080871582,-22.74300075531006,-40.371376266479494,119.42417012343732,none,false,false,false,,,,,,,,,-0.09167646804787949,8.218472443374933,4.963184068015978,-0.6382500226050616,-17.06512586593628,16.199625816345215,-0.025249628493064405,0.03373242600701085,0.04436076725233752,-0.09167646804787949,8.218472443374933,4.963184068015978
69.0,0.07607887755609163,-0.3761680008161186,-0.3947818743267862,0.3585636832861986,8.540369024371156,4.758671378145124,-0.02811126177669457,-0.02430346589719895,-0.011096658286555568,-0.6039261817932129,-0.6657043813478829,0.0805415545064624,0.4304890299197471,-1.3634949686503646,-1.0625407318077464,1.0127704485808269,20.60250072479248,-21.694125633239747,-42.41325126647949,117.09436027419083,,,,,,,,,,,,,0.43451437514533503,8.163777129484876,4.36342148415025,2.483250091075897,-16.015500621795653,14.159250583648681,-0.02661587540525943,-0.025305500626564024,-0.013983749505132436,0.43451437514533503,8.163777129484876,4.36342148415025
70.0,0.028974384745108148,0.15789395117876576,-0.01653762277690511,0.4916567339370137,8.382602355059456,5.025355296976426,0.05411568541518029,-0.043227572948215345,-0.02486593174912474,-0.6063487237575007,-0.658582857426475,0.06912834255718718,0.4399043245642793,-1.328593439915601,-1.0346134281625934,1.0478413128385358,22.89487564086914,-20.233125801086427,-40.66987655639648,116.45851841599737,none,false,false,false,,,,,,,,,0.5205235475281655,8.540007782917396,5.008370824888641,4.776000180244446,-14.555250549316407,15.903000717163087,0.05552977888717079,-0.04728247517920738,-0.026292156218094567,0.5205235475281655,8.540007782917396,5.008370824888641
71.0,0.025963061085745396,0.06826841617279714,0.08774091163189104,0.4378376837524742,8.223114188354794,5.285091456800404,0.03593242577839606,-0.003215595028630578,-0.020697152961303693,-0.6043233045256964,-0.6587526048764144,0.0517598418611111,0.44484366284738674,-1.3339429444605762,-1.0017906645737071,1.0584259328275625,23.21737590789795,-19.854750747680665,-38.838001098632816,117.08517227530176,,,,,,,,,,,,,0.46369308821561905,8.290873178161016,5.372315592547454,5.097375197410583,-14.176875553131104,17.734125671386717,0.037355074580611276,-0.007282054936974355,-0.022111634078371054,0.46369308821561905,8.290873178161016,5.372315592547454
72.0,0.10899514470285937,-0.1163875723586363,0.05825415518427012,0.5396363219364966,8.338443643906537,5.085089585360358,0.007903554061354668,0.04220036741839174,0.011891052957770288,-0.6115603300870633,-0.6524178619478264,0.059005294031664435,0.4434954600006926,-1.2978850649852378,-1.0167072345228756,1.0868968180581635,21.508500785827636,-21.851625823974608,-40.20750137329102,118.53842518198852,none,false,false,false,,,,,,,,,0.6484926806799337,8.221588639652028,5.142819383565118,3.390000153183937,-16.173375663757323,16.363500633239745,0.00931495011272822,0.038141421380215416,0.010474265397836765,0.6484926806799337,8.221588639652028,5.142819383565118
73.0,-0.07142629808202239,-0.4146726329875465,-0.22888084424954683,0.629220385832878,8.15257183868106,5.375630945262342,-0.012920916329442275,-0.023678588994437515,-0.050263736973341445,-0.6015276826254212,-0.6508747256628358,0.05358288164186006,0.4598141321451357,-1.3028823904471822,-0.9832828900601605,1.060620672631972,22.180500831604004,-20.682750701904297,-39.96487655639648,117.3590603683109,,,,,,,,,,,,,0.5575975505358511,7.737393955192943,5.146243322013628,4.062000150680542,-15.004125652313233,16.608000774383544,-0.011507796981178297,-0.027736881812388946,-0.051691831190987386,0.5575975505358511,7.737393955192943,5.146243322013628
74.0,-0.0383871866061407,-0.0367285042645081,-0.02895076853775547,0.5937119570809563,7.988417854496077,5.616739838731055,-0.016714339044091163,0.012020465114391317,-2.2781859882468102E-4,-0.5969743529955546,-0.6504045234006994,0.040536157056397085,0.4675978629612455,-1.3080815345633263,-0.9518775092620476,1.0598118912939931,20.480250740051268,-19.852125816345215,-40.48312660217285,116.12531415584077,none,false,false,false,,,,,,,,,0.5552132579991046,7.951160678676531,5.587245840652316,2.3632500687241556,-14.173875637054444,16.0923756980896,-0.015297548927585869,0.007965563422105476,-0.0016621315906591276,0.5552132579991046,7.951160678676531,5.587245840652316
75.0,-0.021048239335454633,0.1427670070292926,0.14711145344789667,0.6476602411211128,8.132519278195826,5.407331197568686,0.04794529778882861,0.041353464873489176,0.01187264869026471,-0.6053674586928717,-0.6428324426754867,0.05122370335577738,0.4660664764371249,-1.2676438459075323,-0.9727205510186677,1.0881660385887222,17.861250648498537,-20.671500706672667,-40.18500129699707,117.09069411185259,,,,,,,,,,,,,0.6264594319624605,8.27478007042762,5.553921045643269,-0.26025001257658004,-14.994750604629516,16.38712572097778,0.04935841579082431,0.03730606445397186,0.01044999989727051,0.6264594319624605,8.27478007042762,5.553921045643269
76.0,-0.12489695946558141,0.048348224201404,0.10909946884631234,0.7289993800953323,8.176242837718888,5.334985382416669,-0.02220355418930743,0.03246752426996097,0.04937328446619943,-0.606162805183261,-0.6413364229249019,0.057717646052147825,0.46645355721314746,-1.258658811157825,-0.9817686712040621,1.0873958632057787,17.46712577819824,-20.54850082397461,-42.4170011138916,115.8471978690672,none,false,false,false,,,,,,,,,0.6038456161634302,8.224126857869765,5.44355615681293,-0.6513750229775905,-14.870625610351562,14.15625057220459,-0.020790808720002864,0.02838835706386496,0.04794301446435936,0.6038456161634302,8.224126857869765,5.44355615681293
77.0,-0.09026305009564846,-0.4126343260528428,-0.3615605633447666,0.8464511833568611,8.074153489405566,5.476023376578151,0.006657178112591552,0.004593317240181536,-0.03351188137537182,-0.6112692515448769,-0.6400267806383643,0.041047693331642904,0.46337989975910376,-1.2550291979666983,-0.9625872633244732,1.1201207944662264,19.155375747680665,-20.038875694274903,-42.81750144958496,115.09470661215339,,,,,,,,,,,,,0.7559436041456048,7.6610454049440895,5.113922017635685,1.037250036895275,-14.361375617980958,13.758000545501709,0.008063489225425638,5.28217344037672E-4,-0.03493725185715916,0.7559436041456048,7.6610454049440895,5.113922017635685
78.0,0.10803114926202757,-0.04773925543569102,-0.09512730341146489,0.6299743980243064,8.04780109802095,5.534075345143234,-0.027986015059459624,-0.07018626202819961,0.006259651753203113,-0.609048091173172,-0.6435291707515717,0.037118120416998863,0.46134183049201966,-1.2729962146282197,-0.9588094019889831,1.1110085594654082,20.81175090789795,-18.91237575531006,-42.4916268157959,114.01405018420228,none,false,false,false,,,,,,,,,0.737796568422403,7.99959394247225,5.438382439094014,2.692125103995204,-13.234125576019288,14.079000549316406,-0.025018125791102647,-0.07648712554946542,0.004819375923834741,0.737796568422403,7.99959394247225,5.438382439094014
79.0,0.043593544051936356,0.148692339838547,0.08394874183525618,0.7610252789419956,8.043078403661747,5.5177632888945025,0.015634158944323805,0.02286447921657179,0.003143440775278181,-0.6094328784706569,-0.6441327416070617,0.04030854446758138,0.4601397115995388,-1.2735081698634836,-0.9653494600022193,1.108392888956731,22.402500686645507,-18.439500732421877,-40.73925155639648,114.36270674062715,,,,,,,,,,,,,0.804262905390841,8.191301388315635,5.601203739052952,4.284750146865845,-12.76200044631958,15.83362575531006,0.017036385548365587,0.018803464257997452,0.0017180698831556456,0.804262905390841,8.191301388315635,5.601203739052952
80.0,0.0619080778594841,-0.015813661994887332,0.08211741014155467,0.7681024249862222,8.072405618779799,5.482996421701768,0.035838970407734025,-0.008436028708649032,0.010300367655159504,-0.6033136090811562,-0.6430756595789218,0.04886090207625838,0.4687958140583599,-1.2714109619458516,-0.9648992834137935,1.0829034786598355,20.97037570953369,-18.699000701904296,-39.394501495361325,115.39695069417648,none,false,false,false,,,,,,,,,0.8297750399557545,8.056103332369934,5.564620871169894,2.852625117301941,-13.022625522613525,17.1787508392334,0.037249019419701365,-0.012500366958442564,0.008888970229628623,0.8297750399557545,8.056103332369934,5.564620871169894
81.0,0.18415460446941675,-0.14257757290840462,-0.033244299195190466,0.6298042779585512,8.165918444642926,5.356460528798623,-0.04046039554373462,0.012287870137076272,-0.021832549640226483,-0.6044413234927867,-0.6476197219131017,0.051364208064456976,0.46078286312594274,-1.2872716684152585,-0.9798891314185492,1.0777122455068153,20.015250778198244,-20.380125846862793,-40.031251678466795,116.96551792933553,,,,,,,,,,,,,0.8137678602608935,8.022889963471064,5.32272202425664,1.8937500739097595,-14.703000679016114,16.542000617980957,-0.03904999970080386,0.0082186872674392,-0.023263366247462756,0.8137678602608935,8.022889963471064,5.32272202425664
82.0,-0.017282907987999564,-0.39043635528023335,-0.13913265711573117,0.6088505667433435,8.16609883775898,5.357379978778315,-0.04092377425609704,-0.007381862618357819,-0.04009877423774086,-0.5988764049960118,-0.6539207790412155,0.051764098525631665,0.45907942454020184,-1.3175298992325277,-0.9806320883479773,1.0496615954473907,20.289000778198243,-20.485875778198242,-41.82187667846679,116.10258476292289,none,false,false,false,,,,,,,,,0.5915015012062356,7.775145988838346,5.217734098434448,2.1690000748634337,-14.807625579833985,14.751000556945801,-0.03951642224473842,-0.011447548962143414,-0.04152365135229832,0.5915015012062356,7.775145988838346,5.217734098434448
83.0,-0.05702314394526184,0.006358201913535595,-0.0989005484804511,0.7879288697242737,8.181385369300843,5.3134117603302,-6.613758252933621E-4,-0.03454137437045574,-0.02070475016720593,-0.6132905155420303,-0.647397598028183,0.042280729953199626,0.450314519405365,-1.2815386509895326,-0.983126557469368,1.1150473320484162,20.808750762939454,-21.70012580871582,-40.975126571655274,117.90204608047976,,,,,,,,,,,,,0.7149267586335393,8.173344442159822,5.212613122297986,2.687250106334686,-16.022625617980957,15.598500576019287,7.480003032833337E-4,-0.038607249562628565,-0.02213474942371249,0.7306755268760026,8.187258381843566,5.213998749256134
84.0,0.17051347204958836,0.13900759960433431,0.1424704930726804,0.6998476496482194,8.264873401791442,5.177862499274459,0.006857475348036079,0.04019583347162195,-0.00849803947094901,-0.6108281267624275,-0.6531787240037731,0.05316048078969413,0.4438977884311302,-1.3047579258095985,-1.006779118495829,1.0874894074365204,21.918375701904296,-21.60412570953369,-40.13025169372558,118.28567634274458,none,false,false,false,,,,,,,,,0.8702632780221071,8.403359230826883,5.319800240152023,3.800625147819519,-15.92700065612793,16.443375797271727,0.008274264861920885,0.036120710597720505,-0.009924264113400496,0.8702632780221071,8.403359230826883,5.319800240152023
85.0,-0.3169662928540665,0.02842107031605031,0.09654061250978767,0.7127549500010981,8.292190773652331,5.137423128184706,-0.02102660934099614,0.06659628660648619,0.08366398417418545,-0.6142594442509188,-0.6551025722286489,0.04739826735072207,0.43659312713264237,-1.3109352328989765,-1.0095968694970159,1.1021618937501814,22.718625717163086,-21.885750885009767,-37.63312660217285,120.18542745685656,,,,,,,,,,,,,0.395772784966791,8.320078618455641,5.2334675493806895,4.599000160694122,-16.206000690460204,18.93900074005127,-0.019612129072262213,0.06254616305508678,0.08223589019628592,0.395772784966791,8.320078618455641,5.2334675493806895
86.0,-0.10522992218680241,-0.33342469238913525,-0.20700541244564102,0.7162569672891906,8.359900511947332,5.035453427071665,-0.019942891971189893,0.020785416115769277,0.03074472955446325,-0.6021947726315143,-0.652055948972702,0.08066904968490787,0.45310645944931927,-1.3017082938960953,-1.032447504646638,1.0352066118343204,19.77150074005127,-21.70050064086914,-38.14650138854981,119.6324273639125,none,false,false,false,,,,,,,,,0.6107926819035235,8.02597095452103,4.827948782958236,1.6522500669956208,-16.02412561416626,18.42712574005127,-0.018528799252475008,0.01672377363395165,0.029321201985665395,0.6107926819035235,8.02597095452103,4.827948782958236
87.0,0.11466991160028052,-0.1059845470555938,-0.2972426372441915,0.7407979782818273,8.262315046669233,5.19437059081427,0.024853464603276535,-0.09159678128077695,-0.057412376281537926,-0.6158315332809298,-0.6541087916581938,0.046403653901254775,0.43562881161670874,-1.3057260218233164,-1.0098390951014982,1.1104448951116883,18.275625648498536,-22.847625846862794,-35.909251556396484,122.48257987291379,,,,,,,,,,,,,0.8551975715868544,8.155847898804316,4.8966700251739805,0.15712500490248205,-17.169750785827638,20.663250694274904,0.026272029569833585,-0.0956659651508942,-0.05884591457756734,0.8551975715868544,8.155847898804316,4.8966700251739805
88.0,0.017401509034885642,0.17421441008428148,0.09085812647918276,1.017719533513574,8.231474156473197,5.19367800506891,0.0038944846795250974,-0.004288112123807271,0.005983946027745511,-0.627961213682212,-0.6398668078815236,0.03905728424661884,0.44088099224894656,-1.2390869201398362,-0.9935941953285068,1.1787547106836356,15.658125629425049,-22.66537567138672,-38.866876449584964,120.2438388994,none,false,false,false,,,,,,,,,1.034910344441111,8.405193020315732,5.284023779280045,-2.4622500935196876,-16.98712579727173,17.707125778198243,0.0053085787267442425,-0.008357843279144635,0.004563112094925314,1.034910344441111,8.405193020315732,5.284023779280045
89.0,0.029236145833434136,0.025858781464836177,0.056313570250994434,0.677444950654628,8.222299613204656,5.262634684057796,0.011572917270492398,-0.02405710722429349,0.029023284914300722,-0.6192482628074347,-0.650835245847702,0.04153098034508088,0.4370436668395996,-1.2900322582207473,-1.0018358382524228,1.1308351077285468,17.387625846862793,-21.970125885009764,-38.77687644958496,119.53869243339587,,,,,,,,,,,,,0.7064838506025719,8.247643017301373,5.318428200833938,-0.7312500321865082,-16.291125659942626,17.796375770568847,0.01299105390595893,-0.02812953424804351,0.027601103188798708,0.7064838506025719,8.247643017301373,5.318428200833938
90.0,0.16508109074565444,-0.2985208972661507,-0.12115263030633773,0.6391822485308541,8.321293018832066,5.097789863548656,-0.021895173273169168,-0.009088614457609629,-0.0585600248178338,-0.6219332070633916,-0.651076861537329,0.043481930610862106,0.43232946407676925,-1.2885700889153056,-1.0114516993560414,1.1376396818916397,17.215125827789308,-22.556625900268553,-39.4792520904541,119.74298684387468,none,false,false,false,,,,,,,,,0.8040891471549426,8.022306338395223,4.976152226476386,-0.9018750339001417,-16.877625675201415,17.095500621795654,-0.020482054026336363,-0.013160519739889567,-0.05997586648653049,0.8040891471549426,8.022306338395223,4.976152226476386
91.0,-0.07294809710526583,-0.28187153067476317,-0.17117972781096458,0.5040517737358516,8.224476903092627,5.2732102169710044,-0.013419729972477345,0.027903063040153653,-0.008948284539156685,-0.6189165045233334,-0.65219693441017,0.033604333323298714,0.4360668825752595,-1.2995038254588258,-0.9911990586449119,1.1341780599425821,18.60450080871582,-21.14662567138672,-39.774376754760745,117.99769451949908,,,,,,,,,,,,,0.4310206067839674,7.9420680251776,5.101489936604219,0.4852500209957361,-15.469875507354736,16.79850078582764,-0.012008333195220022,0.023840073587409423,-0.010375857298426768,0.4310206067839674,7.9420680251776,5.101489936604219
92.0,-0.044588628727942704,0.13463307239115238,-0.03515661472454667,0.818974620103836,8.10774808883667,5.420859451293945,0.019156063768533196,-0.017043193557880598,-0.007090098823946301,-0.6206851291656494,-0.6436143386363983,0.02939476989209652,0.4465007755160332,-1.2650988328456878,-0.9705749613046646,1.1564493441581727,17.312250785827636,-20.184000816345215,-41.14575149536133,116.14145436166662,none,false,false,false,,,,,,,,,0.793246077484276,8.239827089970655,5.364291328014714,-0.8051250351220369,-14.506500587463378,15.426750679016113,0.01935999923851341,-0.018603751021437347,-0.003309623785316944,0.77420853799209,8.241865854263306,5.385154740810394
93.0,4.446478514913835E-4,0.09981701784201112,0.060294937050225685,0.5037316751150488,8.29814879099528,5.161121214137358,0.010365073057804621,0.06617524561143535,0.019070710452711758,-0.613657509579378,-0.6527181711851382,0.04771581394415276,0.44114505251248676,-1.3016993228126974,-1.0037015594688117,1.103089665665346,18.671625633239746,-19.851375694274903,-39.77287689208984,116.53937853960608,,,,,,,,,,,,,0.504063254998376,8.397432719959932,5.220945835113525,0.5535000217705965,-14.173125553131104,16.799250774383545,0.011775123128923131,0.06211495021924231,0.01765257371224317,0.504063254998376,8.397432719959932,5.220945835113525
94.0,-0.2200812551073066,-0.10215862537964736,0.02658244414199697,0.5402957740548703,8.367986490230749,5.038074380100364,-0.013763613067567348,-0.017816460105857933,0.024487251987551698,-0.6210427614721922,-0.652257507390315,0.04515370302418671,0.4319102970680388,-1.2928985392693246,-1.014383589277173,1.131729500128491,19.6432506942749,-20.580750770568848,-38.58900161743164,118.07665984483494,none,false,false,false,,,,,,,,,0.3201831828948055,8.265364259776502,5.0641517054916605,1.5258750630915165,-14.90175054550171,17.983500785827637,-0.012345049235195216,-0.0218856432106309,0.023050989697475245,0.3201831828948055,8.265364259776502,5.0641517054916605
95.0,0.01181817913026202,-0.3313607308356201,-0.30980580079131853,0.803591725142563,8.253966682097492,5.189543242548027,-0.0053193634193317565,-0.04315477957510773,-0.027500000065557806,-0.6285468684692009,-0.6455843039587432,0.02269369624463805,0.43260982515765173,-1.269092361132304,-0.9817663027959711,1.1860914312156976,18.136875648498535,-20.819250717163087,-39.458252029418944,117.8167117105634,,,,,,,,,,,,,0.8152044526136973,7.922097439859428,4.879286990446203,0.020250009447336195,-15.140250606536865,17.11500072479248,-0.003907964674427229,-0.04722450933346123,-0.028926225379109383,0.8152044526136973,7.922097439859428,4.879286990446203
96.0,0.0585019312854303,0.21795004765770518,0.07204862403231535,0.9501529603016259,8.253170022870055,5.168528948680009,-0.08438551910959258,-0.13742784582225992,-0.08536843993322979,-0.6355739412921491,-0.6463959529848382,0.017626039688429324,0.42068653472579354,-1.2681646642118398,-0.9922243746200411,1.2144115171810188,19.31737575531006,-21.1545006942749,-38.936251678466796,118.55847567014571,none,false,false,false,,,,,,,,,1.0083178739653587,8.47060731850048,5.240060140590857,1.1977500546723605,-15.475875625610351,17.637000675201417,-0.08297920627242858,-0.14149566765155386,-0.08679517284312313,1.0083178739653587,8.47060731850048,5.240060140590857
97.0,0.28179800577973035,-0.5843020199852831,-0.26117626698139834,3.8628213452357874,8.453787728851916,0.974103176021291,-0.8450224243250548,-0.5259968108844524,-0.723477815346354,-0.13450511179718316,-0.19422212506041808,0.018790911790668306,0.15940878433791703,-0.42412255632955875,-1.01686289731194,0.43284064648198145,11.629875547587872,-40.653376274108886,-12.629625642895698,161.64889399573053,,,,,,,,,,,,,4.144148731932921,7.868957757949829,0.7129338591852609,-6.4886252617836,-34.977376556396486,43.944001808166504,-0.8435012314579274,-0.5246632375782079,-0.7222425668998299,4.144148731932921,7.868957757949829,0.7129338591852609
98.0,-0.12114550173282623,0.46427400410175323,0.017109998501837254,6.7312235832214355,6.984544515609741,-1.395076036453247,-0.18328749388456345,-0.17249374836683273,-0.4823499917984009,0.9117410182952881,0.39517900347709656,0.01877100020647049,0.11049400269985199,0.07714520394802094,-0.8106714487075806,-2.867272138595581,-2.9437501430511475,-46.96875,8.58750057220459,190.3611950529221,none,false,false,false,,,,,,,,,6.609525442123413,7.448475360870361,-1.3775250315666199,-21.056251525878906,-41.28750228881836,65.15625,-0.18191250413656235,-0.17661874741315842,-0.4837937653064728,6.609525442123413,7.448475360870361,-1.3775250315666199
