seconds_elapsed,accelerometer_z,accelerometer_y,accelerometer_x,gravity_z,gravity_y,gravity_x,gyroscope_z,gyroscope_y,gyroscope_x,orientation_qz,orientation_qy,orientation_qx,orientation_qw,orientation_roll,orientation_pitch,orientation_yaw,magnetometer_z,magnetometer_y,magnetometer_x,compass_magneticBearing,network_type,network_isConnected,network_isInternetReachable,network_isWifiEnabled,network_isConnectionExpensive,network_ssid,network_bssid,network_strength,network_ipAddress,network_frequency,network_cellularGeneration,network_carrier,totalAcceleration_z,totalAcceleration_y,totalAcceleration_x,magnetometerUncalibrated_z,magnetometerUncalibrated_y,magnetometerUncalibrated_x,gyroscopeUncalibrated_z,gyroscopeUncalibrated_y,gyroscopeUncalibrated_x,accelerometerUncalibrated_z,accelerometerUncalibrated_y,accelerometerUncalibrated_x
0.0,-0.009503175162770335,-0.24930885844733766,-0.5578359891477439,9.27338735518917,3.0999902115073255,-0.5081889228394596,-1.1246110296837906,-0.31138483734127687,0.2776183477067884,-0.5560125026010698,-0.03438017192366783,0.1413498064202647,0.7970493217950226,0.11312096251515291,-0.2758406206805219,1.235504865005452,-45.949469546054274,-0.021143636804945926,-22.49401689083018,87.32579805085295,,,,,,,,,,,,,9.285577835575227,2.855522714635377,-1.0657290812151166,-64.06994977910468,5.656516262825499,34.07952268072899,-1.123192147867001,-0.3154337753967798,0.27619800383740284,9.285577835575227,2.855522714635377,-1.0657290812151166
1.0,-0.6125681045439814,0.05399435259733755,-0.7573020388694978,6.653651274996353,4.09606573862188,-4.506082743990655,-0.687246558712978,0.8631481624336219,0.8997865135041887,-0.8699303620001849,-0.15657207881118737,0.29113881392221824,0.28187261719037504,0.5811502268793536,-0.40800274090439664,1.4122625051760207,-27.930751083418727,-34.879501304626466,-0.3101250115036964,176.30366711209496,,,,,,,,,,,,,6.0430767787620425,4.147892840937073,-5.273026724656423,-46.04737663269043,-29.200501098632813,56.264252548217776,-0.6725737603731675,0.8732720306788636,0.9025173213120808,6.0430767787620425,4.147892840937073,-5.273026724656423
2.0,-0.4880381431983839,-0.7208884686305381,-0.6962059982360738,0.22411805551440345,8.853655782076391,-2.8790284726275406,0.7911355177143423,-0.2683959130502057,-0.012365470391393888,-0.6690638018126535,-0.5128026129585681,0.4090447658949559,0.3082912489034162,0.490206125662616,-1.219548286187767,-0.07279875726983098,7.589625306129456,-43.32637664794922,-13.169625486135482,163.41801102080706,none,false,false,false,,,,,,,,,-0.2638099145715927,8.132256328469456,-3.5750585937559016,-10.527375402450561,-37.648876647949216,43.403626976013186,0.7925472743624803,-0.27245556659498577,-0.013786758074887318,-0.2638099145715927,8.132256328469456,-3.5750585937559016
3.0,0.09609023731900379,-0.12068476250358656,-0.11411632283353339,0.2183507055993758,9.684222670162425,-1.3201623880395703,-0.024218872116476883,-0.01939154412213932,-0.015451224991029092,-0.6543571095840603,-0.5596394942087286,0.35166910524461786,0.3666154444217682,0.37747854827081456,-1.432025245591706,2.4505120048335955,10.69275047302246,-40.83825149536133,-24.858000984191893,148.68845889311314,,,,,,,,,,,,,0.31429707373072413,9.563050396302167,-1.433817714726662,-7.424250345230103,-35.160376434326174,31.713001327514647,-0.02280343084723926,-0.023447793766892717,-0.016870711030730724,0.31429707373072413,9.563050396302167,-1.433817714726662
4.0,-0.05183418922697996,-0.5099243894219398,0.2442328506800586,-0.053683554412483576,9.696936711226359,-1.3018623018028712,8.971528057931084E-4,0.14071286986996928,-0.04766348942579462,-0.6460834234067709,-0.5518894886026288,0.37393848465220764,0.36957879172693386,0.6040916870726217,-1.4343203813722818,2.634735914740232,8.855250301361083,-40.87312660217285,-25.07287609100342,148.4819027349302,none,false,false,false,,,,,,,,,-0.10545000725305907,9.186535065717036,-1.0571807401789592,-9.264000387191773,-35.194876480102536,31.499626235961912,0.002322525196330677,0.13666138530127925,-0.049092944563910515,-0.10545000725305907,9.186535065717036,-1.0571807401789592
5.0,-0.006181391054198292,0.04872749238183685,0.1902151760261725,-0.08581939175971509,9.667481338276582,-1.5033242936227835,-0.05526017118245363,0.019864705080787342,-0.016912499378782277,-0.6431236722890068,-0.5465176269119861,0.3889615994458105,0.36795681422831966,0.7645402235143325,-1.4275406236742056,2.7727905698851045,7.608750247955323,-41.91150169372558,-22.672125854492187,151.60670840132957,,,,,,,,,,,,,-0.09188382766739119,9.715681351867376,-1.3127853541324537,-10.510125427246093,-36.23362648010254,33.90112651824951,-0.05385281802976832,0.01581249941213458,-0.0183306370231816,-0.09188382766739119,9.715681351867376,-1.3127853541324537
6.0,-0.1395886218138408,0.07535242186432778,0.08301212896113422,-0.1537736836050886,9.587079897965536,-1.8989668394079302,-0.0936402217715536,-0.028270544179964184,0.050323637372970874,-0.6456280905421418,-0.5391084510501069,0.40204134406429703,0.3604462766411281,0.9296981497566299,-1.4034655342007627,1.9944139707206499,10.461000442504883,-42.11062644958496,-20.651250762939455,153.87877047453225,none,false,false,false,,,,,,,,,-0.29320694453608576,9.661928181601043,-1.8155154264762554,-7.658625326156616,-36.43162666320801,35.921626586914066,-0.09222982574881304,-0.03233836537300803,0.04889826695573064,-0.29320694453608576,9.661928181601043,-1.8155154264762554
7.0,-0.1871496623434993,-0.11511643197719414,-0.022763851485998913,-0.1887508492195504,9.592674002927893,-1.8732659337567348,-0.003717892994994626,0.01362867554759278,0.012112133574726828,-0.6509123733728239,-0.5380342732561697,0.39999207706734685,0.35494099867225876,0.9328384836121361,-1.3942014958598825,0.5167742719744691,9.830250387191773,-42.82350158691406,-22.088250999450683,152.7447272091706,,,,,,,,,,,,,-0.3776956035700791,9.449860759809905,-1.890691274466614,-8.288250322341918,-37.145251770019534,34.48575138092041,-8.917075978352292E-4,0.005224999482973967,0.011833168321870046,-0.3776956035700791,9.449860759809905,-1.890691274466614
8.0,-0.04399627978913486,-0.6603222304582596,0.10588863814249634,-0.17764051829464733,9.622163248062133,-1.7312324965000152,0.005566708582204463,-0.025760148190847126,0.012866460768930098,-0.6465161489968253,-0.5319120813124251,0.40942238787613294,0.361449140133244,0.971362828618229,-1.3924007238727985,2.394461180904124,7.654875297546386,-42.62437660217285,-21.339750823974608,153.4168812946612,none,false,false,false,,,,,,,,,-0.21707228770350465,8.974791531515594,-1.6400228458097075,-10.464375438690185,-36.94612640380859,35.232376403808594,0.006271374593488872,-0.028407499426975846,0.010311124664731323,-0.21707228770350465,8.974791531515594,-1.6400228458097075
9.0,-0.07183719966341603,-0.126949805139315,0.010529803955872165,-0.25397854367510814,9.650205291143738,-1.5614535454476233,0.05140866455391492,-0.08566658291965723,-0.0086570547082194,-0.646477694604911,-0.5392452010921404,0.39950057834971187,0.3610975686825958,0.885215935753841,-1.4069244101935743,2.2700678250368904,8.800125341415406,-42.881626510620116,-20.007375717163086,155.00622054820494,,,,,,,,,,,,,-0.3176823669505835,9.503088693992764,-1.5454530042833556,-9.317250356674194,-37.20300163269043,36.56550170898438,0.05281905994962643,-0.08972759807187289,-0.010079702445407315,-0.3176823669505835,9.503088693992764,-1.5454530042833556
10.0,0.07814309948313022,0.18746418638689683,0.03725093110731923,-0.3253504432101577,9.646835081648119,-1.528578279632153,0.03313477734786154,-0.03690445500121701,0.007668687911280016,-0.6548891079307783,-0.5492150630101119,0.3772014447368017,0.35571018687569267,0.7329627608898843,-1.4142972821056252,2.780996811271894,8.75662534713745,-43.36500144958496,-20.788500900268556,154.3915016324134,none,false,false,false,,,,,,,,,-0.24710941744396592,9.833791067104528,-1.490872339502272,-9.360375318527222,-37.68562652587891,35.785876693725584,0.03453972726359521,-0.040958661821182116,0.006251485552638769,-0.24710941744396592,9.833791067104528,-1.490872339502272
11.0,0.015397060765227413,-0.11964063046901834,-0.13137252988264092,-0.2235913336843106,9.669211799023198,-1.4452255081896688,0.02670061245889348,-0.018451961533476908,-0.027371936231194174,-0.6557919675228643,-0.5488171226838056,0.3747576355349784,0.35740109985949947,0.7047820637623469,-1.4154852172907662,2.7540920458587945,10.286250286102295,-41.037001342773436,-20.379375762939453,153.6312812181498,,,,,,,,,,,,,-0.20820883530027726,9.549122520521575,-1.576116249184398,-7.832250289916992,-35.357626571655274,36.19312644958496,0.028105269391637516,-0.022506861563991096,-0.0288008575455523,-0.20820883530027726,9.549122520521575,-1.576116249184398
12.0,-0.01070137631429341,-0.5223421597816419,0.062451445174836875,-0.251843643937223,9.66592532809418,-1.4113778696201815,-0.011136138124741835,0.05386460444309039,-0.020030074158111717,-0.6703246241748924,-0.554655152382237,0.35238889892502584,0.3438458779070637,0.5840660218555148,-1.4049132283371273,2.691963837878539,10.612125415802002,-40.79550155639649,-19.27987575531006,154.71340348953098,none,false,false,false,,,,,,,,,-0.262488134020921,9.143091527542266,-1.3485787821804534,-7.507125291824341,-35.117251586914065,37.29225120544434,-0.00972302013196715,0.049796782410934125,-0.021448638336271933,-0.262488134020921,9.143091527542266,-1.3485787821804534
13.0,-0.022501714828917208,-0.16910270840733074,0.2930567752496869,-0.12778339118641965,9.63196315017401,-1.6803418619959962,-0.04317769584903384,0.01619399495094138,-0.04503799039943546,-0.6763938799792645,-0.5517195691080654,0.35403786278238486,0.3349321636499143,0.65716332460151,-1.3915791242730384,2.7762291922288784,11.092875356674194,-40.40325172424316,-16.711125755310057,157.56327700167546,,,,,,,,,,,,,-0.15018088903789426,9.462366674460617,-1.3868927063566505,-7.025625305175781,-34.72350135803222,39.86025154113769,-0.04176225477610441,0.012140441329821068,-0.04646421469492363,-0.15018088903789426,9.462366674460617,-1.3868927063566505
14.0,-0.11682902138200726,0.17579496838152409,0.019154835178857983,-0.1478731877949679,9.55879780797675,-2.080606935047867,-0.02113143605465936,-0.08412685675435874,0.012923638253371315,-0.689504071037368,-0.5497892799943981,0.34672401388092794,0.3185107510278721,0.6931395418573134,-1.368238084387071,2.849440364554377,15.353625621795654,-40.68937660217285,-16.455375766754152,157.97864598545468,none,false,false,false,,,,,,,,,-0.2645079322103964,9.734104992139457,-2.0610208903430123,-2.764125107526779,-35.0115015411377,40.117126541137694,-0.019716955477021413,-0.0881797021789716,0.011507797276250797,-0.2645079322103964,9.734104992139457,-2.0610208903430123
15.0,-0.09367682391038056,-0.09414090774953365,-0.003263617547311108,-0.2430574498824118,9.533833129733216,-2.142165208564085,-0.09271139671624291,0.02613982787885356,0.026056250324472785,-0.691352868197011,-0.5521996477070976,0.34733115633328754,0.3092894022371255,0.7445433829344955,-1.3622817420491986,2.606490004296396,16.261875686645507,-41.746876602172854,-17.932125663757326,156.77126605954393,,,,,,,,,,,,,-0.3365764885629509,9.439173978917738,-2.1449603973979166,-1.8562500589340925,-36.06825141906738,38.64150177001953,-0.09130269514086346,0.022075490030807023,0.024632720861072634,-0.3365764885629509,9.439173978917738,-2.1449603973979166
16.0,-0.04215983457236302,-0.5883476041847526,0.040006137997059536,-0.24103292050116723,9.554824706351402,-2.0889416307505995,0.03530618905707603,0.05906509832100998,0.01938477728866262,-0.68037479702789,-0.5409385107531406,0.3775112773522292,0.31810300893122606,0.9196272557324702,-1.3549353084941902,3.0257071079594073,16.350750675201414,-43.49925186157227,-20.03850072860718,155.28180479059293,none,false,false,false,,,,,,,,,-0.28299358029766836,8.96597417038266,-2.0484431775489655,-1.7662500633299352,-37.81950149536133,36.53475158691406,0.0367206682838352,0.05500408334860412,0.017963489098013333,-0.28299358029766836,8.96597417038266,-2.0484431775489655
17.0,-0.046317288715976714,-0.26442677096701134,0.18176396507495904,-0.17863675593581124,9.511378774455949,-2.2692842600392362,0.001729534628490607,-0.10379227918262283,0.013669117755603557,-0.6884180909278346,-0.5321471749567518,0.37515292798771577,0.31791325497861,0.8681671572666542,-1.3335887053433586,2.730437479767145,13.052250518798829,-44.848126602172854,-18.91312587738037,157.14136761534138,,,,,,,,,,,,,-0.22491913279701098,9.246498986786486,-2.0870839152850356,-5.064375212192536,-39.17175155639649,37.66050148010254,0.0031409311455254463,-0.1078458337898494,0.012249632601571433,-0.22491913279701098,9.246498986786486,-2.0870839152850356
18.0,-6.194788357242942E-4,0.15023002319037915,0.08339014869183302,-0.44185116406677677,9.462525509371616,-2.419865350912113,0.013657425903705972,0.00906274823637882,0.011661633397314217,-0.6869556927680969,-0.5406347686052322,0.3780653613805771,0.3035097485780716,0.9811828005313873,-1.3371941828727723,-0.22102055788040162,14.471625537872315,-44.56575164794922,-17.873250789642334,158.1631969998209,none,false,false,false,,,,,,,,,-0.4370153678516571,9.587335119153014,-2.329923381678539,-3.646875138282776,-38.88787651062012,38.698876495361326,0.012938750414177776,0.004760252241976559,0.013360874983482063,-0.4474350216379389,9.611158967018127,-2.3391121146827936
19.0,-0.024468146504299477,-0.029828782497656227,0.02201927137920762,-0.6468596637714654,9.475921838590414,-2.305452625350197,0.055277721799614994,-0.0010346532476567987,0.004997648123541091,-0.6774329448690509,-0.5418176603789376,0.3860140835294629,0.31240504271913283,1.0069148239522878,-1.3507282249998338,-0.25120962728368174,13.545750579833985,-44.377126693725586,-17.372250652313234,158.60027419702055,,,,,,,,,,,,,-0.671068846690699,9.44563853386605,-2.2829362479047757,-4.570500197410584,-38.698876495361326,39.199876403808595,0.05669492557368214,-0.005097029135922099,0.003569554980143462,-0.671068846690699,9.44563853386605,-2.2829362479047757
20.0,-0.004006421470110959,-0.29852219265286284,-0.06893355299783226,-0.6454171988061896,9.550678017115828,-1.9982552658213246,0.012727599489585599,0.047355816270787235,-0.022472400780730317,-0.6762018239144052,-0.5469052313578011,0.3747422299762764,0.32054257422390553,0.9155474293349993,-1.3713528980122935,3.023327721227514,16.460250720977783,-40.59150161743164,-17.815500717163086,156.2932846435576,none,false,false,false,,,,,,,,,-0.649225276074197,9.25165887870411,-2.0666971215517216,-1.6586250615119935,-34.91287628173828,38.757751388549806,0.014147524108722954,0.043293439723219314,-0.023910024097318402,-0.649225276074197,9.25165887870411,-2.0666971215517216
21.0,-0.05354515776628315,-0.4736678970667607,0.1279458961089944,-0.6267324105184525,9.541707153320312,-2.0164173436164856,3.666652129123024E-4,0.03431838256416514,-0.042995710131328774,-0.6802575564620519,-0.5449617569989497,0.37286624076342817,0.31728278380809444,0.8914492850256438,-1.3623802355020354,2.6337999872641986,18.54225061416626,-39.62812644958496,-21.12787582397461,151.94728444092055,,,,,,,,,,,,,-0.6756147391655866,9.05319748205297,-1.8798780364769638,0.4237500110268593,-33.950251502990724,35.4457511138916,-1.3337476179003715E-4,0.028639875575900076,-0.04443724953103811,-0.6816208256353246,9.068912798815434,-1.8813921749628713
22.0,0.01908578177554404,-0.08295225746708342,0.23238143573819411,-0.6440449513605621,9.547654218012743,-2.0277122046687817,-0.024119678082516288,0.007921906377161197,-0.03411361325237126,-0.6817672949026127,-0.5473618590005553,0.3646568225161864,0.3191035333836433,0.8244804804868037,-1.3688004607021218,2.950701715922592,16.317750759124756,-43.01737648010254,-22.718250846862794,152.13261105430726,none,false,false,false,,,,,,,,,-0.6247277558310935,9.464180648917019,-1.7948124611031007,-1.8018750815838576,-37.3402515411377,33.8523766708374,-0.024348499607294797,0.007678001523017884,-0.03750862570479512,-0.6247277558310935,9.464180648917019,-1.7948124611031007
23.0,-0.019777782354960402,0.12294096982234395,0.08907172868630904,-0.7041265774271724,9.523246718387977,-2.11544366794474,-0.052206862544385245,-0.062001714738560657,0.04468345508782887,-0.6844930853329453,-0.5475378720199361,0.3647894684006186,0.31283069679550096,0.8562834531653161,-1.3613785926033468,1.63698695453943,14.093625526428223,-43.82700164794922,-20.647500801086426,154.7742408968262,,,,,,,,,,,,,-0.7236103296060773,9.645703409232345,-2.0259265712663237,-4.024875192642212,-38.14987663269043,35.92537658691406,-0.05079546560734218,-0.06606874935895059,0.04326936229150377,-0.7236103296060773,9.645703409232345,-2.0259265712663237
24.0,-0.14386351208322415,-0.06277834520776673,-0.04437674942546257,-0.8382709395177294,9.54291300254293,-1.961129622884316,0.028090842045142804,-0.013329331076123042,-3.389850037522835E-4,-0.6808705076132671,-0.5603240722476845,0.3582358956336975,0.3057176426495656,0.9016519554770819,-1.3839824022633014,1.8788288536638316,14.996625690460204,-42.72900146484375,-19.036125869750975,155.98013390768622,none,false,false,false,,,,,,,,,-0.9816906385464907,9.47961721797981,-2.005012966839984,-3.1211251366138457,-37.05037658691406,37.53637664794922,0.02950532223088759,-0.017386261728767415,-0.0017616347695636277,-0.9816906385464907,9.47961721797981,-2.005012966839984
25.0,-0.14232645242579975,-0.38387290793744955,-0.017841110882513663,-0.34604599978774786,9.60756285985311,-1.8003686713237388,-0.029245710621277492,-0.06211090552638851,-0.039892524640605435,-0.6884434620539347,-0.538806732378754,0.3522312658674577,0.33249189368650023,0.6303742755861843,-1.3538667068761938,2.754170721652461,11.411625499725341,-41.60137680053711,-20.144250755310058,154.21027004296394,,,,,,,,,,,,,-0.4881514900309198,9.223203373890296,-1.8178780369606673,-6.704625301361084,-35.92237640380859,36.42900146484375,-0.027831616446229758,-0.06616985050084837,-0.041317401650160845,-0.4881514900309198,9.223203373890296,-1.8178780369606673
26.0,0.03072441105672624,-0.465090898424387,0.14906521465629338,-0.0925926070829684,9.634868747056133,-1.6311508164261326,0.057559405591818366,0.03570099097519818,0.029423638772551376,-0.7005181613594594,-0.5405626381286467,0.3327022131645318,0.32462539395900686,0.524367483577343,-1.3398268873041326,2.6917981836530895,13.413750591278076,-41.52675155639648,-19.105500717163086,155.32557259709583,none,false,false,false,,,,,,,,,-0.05827277537324641,9.151749964987877,-1.4678347275158998,-4.7032501912117,-35.84812644958496,37.46737655639649,0.05583888741981501,0.025031944548692366,0.030909721513815,-0.0659760033339262,9.170187458992004,-1.476403574263677
27.0,-0.031149763493814653,-0.037021793717262795,0.1189930305231874,-0.5446375301564295,9.624291298436184,-1.6446304508284026,0.0032946074554952337,-0.03184473020590696,0.0258243864164779,-0.6859109325736177,-0.5506704297720217,0.3484475574657029,0.32296320474615287,0.6785592080331316,-1.3744887534309835,2.825294478266847,16.87012565612793,-41.47387672424316,-19.41262580871582,154.91765137385417,,,,,,,,,,,,,-0.5756088510776559,9.586738736021752,-1.525182423930542,-1.247625050842762,-35.796001510620115,37.16137626647949,0.004712745373812961,-0.035906373226430775,0.02440220528903107,-0.5756088510776559,9.586738736021752,-1.525182423930542
28.0,0.023020977878223846,0.14638037345196941,0.05806668508465927,-0.7739054447058404,9.569698107124555,-1.8640649637373368,0.04023712853172628,-0.016137871826713036,0.013289851643661461,-0.687622592590823,-0.5450450955051007,0.35397738572394494,0.32251535518334645,0.7138649301953836,-1.3625246463435712,2.8515852111400943,17.618250732421874,-42.948376693725585,-21.238875770568846,153.75569221895563,none,false,false,false,,,,,,,,,-0.7505836977570383,9.715540569607574,-1.8055545403668196,-0.4991250252723694,-37.27162658691406,35.334751472473144,0.04164480250144359,-0.020192079882294236,0.011861757135553526,-0.7505836977570383,9.715540569607574,-1.8055545403668196
29.0,0.026082636366196562,-0.1057885216877741,-0.028529655754420104,-0.8407352514126721,9.561982454038134,-1.8716491916600395,-0.002340195842050746,0.001193014293105579,-0.015541543946692757,-0.6849193841803307,-0.5489576184282116,0.35686640178456025,0.31862563537616356,0.7694003383318583,-1.3695711575302423,2.9091955844093773,15.92175064086914,-40.76325164794922,-19.096125984191893,154.9029325281198,,,,,,,,,,,,,-0.8143515110965452,9.455688700956458,-1.8996721438917459,-2.1956250923871994,-35.08462669372559,37.47712646484375,-9.207113682493276E-4,-0.0028699766981470235,-0.016962376952755685,-0.8143515110965452,9.455688700956458,-1.8996721438917459
30.0,-6.705865340012283E-4,-0.47685995801250536,0.07032079013792963,-0.7383537618798437,9.548109407424926,-1.97088236451149,-0.009113118384439166,0.08255853903212465,-0.049399257144236035,-0.6896086579561234,-0.5406528252363205,0.3615461528301239,0.3173256453871727,0.7902614641189575,-1.3492784261703492,2.9233497881889345,18.07912570953369,-40.13737648010254,-21.52275089263916,151.86410858833972,none,false,false,false,,,,,,,,,-0.73464062835763,9.07127566384797,-1.8997515778306244,-0.04012500107288361,-34.45950172424316,35.05050151824951,-0.008383374959230423,0.08261137415654957,-0.05285774989053607,-0.73464062835763,9.07127566384797,-1.8997515778306244
31.0,0.04552591960914064,-0.38081596732729733,0.190690173723275,-0.726193838960279,9.535920162012081,-2.0229783306027405,0.006726608754569056,0.02741423169943956,-0.026163118716218684,-0.6929370867143764,-0.5384641567079147,0.36231905989127583,0.3130506994110523,0.8012550237155197,-1.3393896228016013,2.939512578567656,15.611625671386719,-42.93075126647949,-23.728875885009767,151.04455261522958,,,,,,,,,,,,,-0.6804817152569199,9.154619249967066,-1.831856516969049,-2.5083751086890698,-37.25175163269043,32.84512649536133,0.00766700008418411,0.02927374862600118,-0.029753625304438175,-0.6804817152569199,9.154619249967066,-1.831856516969049
32.0,-0.06315481267629726,0.04707773699249962,0.22447378727455283,-0.8000477432356318,9.532668661363054,-2.027366556743584,-0.015484405967342381,-0.06189950438917126,0.004545668688704177,-0.6965407404569116,-0.5373574613344552,0.35325024092551505,0.3175748096834315,0.7120572204637056,-1.3385602011538968,2.857730494867457,8.665500345230102,-43.224001541137696,-21.68662586212158,153.492966342992,none,false,false,false,,,,,,,,,-0.8628891518957322,9.579221720742707,-1.8024520671161095,-9.453000392913818,-37.54537643432617,34.88512630462647,-0.014072648083588274,-0.06596460269930043,0.003117573410641439,-0.8628891518957322,9.579221720742707,-1.8024520671161095
33.0,-0.04035681938665791,0.05824832106922187,0.11683506416339501,-0.7995531691201762,9.516885318008123,-2.104569733142853,-0.01925943639841588,0.07512757408103961,0.0028443620494548595,-0.6976877567814845,-0.5381527543067932,0.3487556065414466,0.31846343273041294,0.6765974123103946,-1.3389320700776344,2.8280577706355676,8.542500386238098,-38.09625160217285,-16.584375686645508,156.48615809233672,,,,,,,,,,,,,-0.8395794515689725,9.574629811679616,-1.9873045084486698,-9.573375406265258,-32.41725147247315,39.98962661743164,-0.017860172156646262,0.07106997458921636,0.0014262243776636966,-0.8395794515689725,9.574629811679616,-1.9873045084486698
34.0,-0.15165524970795405,0.015767063023430287,0.125388857355286,-0.6334604094597963,9.535556009500334,-2.0298847750862046,-0.046538985523367576,-0.06112351499055282,8.49504397241491E-4,-0.6968624644940442,-0.5261093755759815,0.35582809873146587,0.33150268338694433,0.6474251723525548,-1.3240033222897218,2.7649638818042113,11.215125465393067,-37.50300178527832,-19.090500679016113,153.01590802250735,none,false,false,false,,,,,,,,,-0.7847777638067999,9.550785612351824,-1.9040154420798368,-6.902625279426575,-31.82475128173828,37.48350166320801,-0.04513131112948355,-0.06517908438616017,-5.717815158169458E-4,-0.7847777638067999,9.550785612351824,-1.9040154420798368
35.0,-0.1273801773238708,-0.4862931658349493,-0.005538342210153739,-0.8822424800372591,9.506210495443906,-2.0820991829329847,-0.03281531716222126,-0.10423578340651504,0.06303027019762963,-0.6959535544461543,-0.5348778508677341,0.3560240675907324,0.31867777504543265,0.7276762788838679,-1.334532383644935,2.555331813226832,15.847500762939454,-39.39262657165527,-19.076250648498537,154.17385207713585,,,,,,,,,,,,,-1.0093176953275413,9.019425368776508,-2.087175100567002,-2.2706251019984482,-33.71325157165527,37.49700149536133,-0.03139044033071282,-0.10829203329779499,0.061606739346376234,-1.0093176953275413,9.019425368776508,-2.087175100567002
36.0,0.2518087452240657,-0.4478862220882484,0.2837985027904189,-1.2919753441716184,9.426073905264976,-2.2689890259563334,0.05299740157431305,0.00951745089991848,-0.005708292384844015,-0.6993026987160786,-0.5411056427672358,0.3567086133626428,0.2992311972792786,0.8161843070889464,-1.3303362815686972,1.6784630341104942,18.02212574005127,-40.17675132751465,-18.12975076675415,155.71482234773612,none,false,false,false,,,,,,,,,-1.0397718367028501,8.977674243473771,-1.9846901846404124,-0.09787501439452172,-34.49775169372558,38.44237655639648,0.05232287524733693,0.0028682497795671225,-0.006575249368324876,-1.0397718367028501,8.977674243473771,-1.9846901846404124
37.0,0.15718505709596417,0.06493998782745763,0.2637325051587586,-1.089838527581271,9.461040393978942,-2.2168911111121083,0.0094497541705256,0.020452452293944125,-0.002744607490432613,-0.7017873344468135,-0.5373837007027046,0.3494478472891976,0.3090694014932595,0.7267177817868251,-1.3296472897716598,2.891342469290191,18.32287570953369,-39.82050140380859,-19.715625877380372,153.69126271445145,,,,,,,,,,,,,-0.9323147520715115,9.525529856775321,-1.952626561417299,0.20325000405311586,-34.143001556396484,36.85687622070313,0.01085980366641546,0.016384069999570355,-0.004156003413977576,-0.9323147520715115,9.525529856775321,-1.952626561417299
38.0,0.001982861034133855,0.08784200959638053,0.12619580639133632,-1.041987047041997,9.41905957401389,-2.3897152218488182,0.043122426419537147,-0.0730825988438857,-0.01589607829501962,-0.7066674716401808,-0.5420675702614359,0.34900160384650275,0.2900528385497556,0.8093506564008127,-1.3219088516613045,2.818243666450576,18.45825077056885,-41.27512664794922,-18.636375846862794,155.695420499829,none,false,false,false,,,,,,,,,-1.0337294657513791,9.508081333309997,-2.2588853982149386,0.3427500081062317,-35.598001632690426,37.93612663269043,0.04121324222184496,-0.07760717639109434,-0.015455816572734921,-1.0337294657513791,9.508081333309997,-2.2588853982149386
39.0,0.08969153385922903,-0.12807813456447997,-0.028237025281137758,-0.9881684842086075,9.493168245447745,-2.133490604929405,-0.003278218703067834,-0.006210644222279587,0.02648304397295607,-0.7062636336477677,-0.5547674622866187,0.3315324343667172,0.28803882888048005,0.7363165752722485,-1.3463724816199576,2.9645339167944273,18.38625074386597,-39.70387657165527,-19.885500679016115,153.39475396217577,,,,,,,,,,,,,-0.898106472658934,9.364647445112173,-2.1612327778619704,0.26700002282857893,-34.02675151824951,36.68587638854981,-0.0018650991657730377,-0.010274381422908,0.025057672725824435,-0.898106472658934,9.364647445112173,-2.1612327778619704
40.0,0.05897024522225062,-0.4299954174122974,0.16606856047848637,-1.1093428178745157,9.403670226826387,-2.444803073125727,-0.02357855504926513,0.11294411804855746,-0.07754730372050521,-0.7078597890395745,-0.5474790977496727,0.3457919820850971,0.2802142842727549,0.8530087693064821,-1.3239723584231209,0.42055022716522217,16.537875785827637,-37.85475158691406,-18.093000717163086,154.47031675511622,none,false,false,false,,,,,,,,,-1.0499088727542674,8.973148953680898,-2.278250104875541,-1.5810000598430634,-32.17575122833252,38.48062675476074,-0.022172548789896218,0.10889460756808665,-0.07896948500773777,-1.0499088727542674,8.973148953680898,-2.278250104875541
41.0,0.07427338659959283,-0.3352167719956672,0.24337471241020772,-1.1097698863780145,9.346687411317731,-2.648110857104311,-0.02394269886749363,0.033106187399993145,-0.026691335640700146,-0.7049825793504715,-0.5374172967672348,0.3690791884064674,0.27767765760421753,0.9710011678934097,-1.297952950000763,0.1366948390007019,16.573125762939455,-40.47525169372559,-17.37412572860718,156.74116632327846,,,,,,,,,,,,,-1.0350728243552516,9.01097269341497,-2.4042862349807628,-1.5461250568926335,-34.79737640380859,39.19987663269043,-0.022001375085674225,0.02689912462141365,-0.03155762488022447,-1.0350728243552516,9.01097269341497,-2.4042862349807628
42.0,-0.005433309827839919,0.0019626073977526497,0.1747826755768163,-1.0210432740403157,9.353906051785339,-2.65827580760507,0.0013345584875958808,-0.029311764350745315,-0.023461275765964507,-0.7032678203255522,-0.5345379394643447,0.3727318150740044,0.2830105701497957,0.9717676996016035,-1.2989169254022486,-0.24897058103598801,16.584000720977784,-41.712376556396485,-16.446000633239745,158.49516945024658,none,false,false,false,,,,,,,,,-1.0261368173375434,9.35532982676637,-2.482983945923693,-1.5341250625252725,-36.03337646484375,40.12725151062012,0.005143317513831771,-0.0331688130246752,-0.02412648522986634,-1.0261368173375434,9.35532982676637,-2.482983945923693
43.0,-0.08277682220983425,0.16349109885568666,0.09303282518493067,-1.0254015595015913,9.373655876310744,-2.579150851410214,-0.057159157838709285,-0.05762202993477925,0.020740717695564917,-0.7094745588774728,-0.5459271828726967,0.34628694865963244,0.2785362176375814,0.8512957113804204,-1.3190497962555083,1.5761882739491981,17.751750736236573,-41.41950141906738,-16.44075059890747,158.36948226791813,,,,,,,,,,,,,-1.107788666050033,9.536630668262443,-2.485610021813081,-0.3667500168830156,-35.74275177001953,40.13287643432617,-0.05574059413543137,-0.06167351590045313,0.019323514022928947,-1.107788666050033,9.536630668262443,-2.485610021813081
44.0,-0.0885463748423967,-0.13507726036158263,0.017336463400473196,-0.9238929519174146,9.39573776955698,-2.5300303779396356,0.0014397067236987984,-0.015497058346940606,0.023699876907117227,-0.705324636370528,-0.5453846951325735,0.35710129492423115,0.2772074140170041,0.9255656997362772,-1.3161337586010204,0.7876129056893143,17.349000644683837,-40.062751388549806,-16.813125591278077,157.21906467105143,none,false,false,false,,,,,,,,,-1.0121162207614558,9.26014754818935,-2.512179535977981,-0.7713750243932008,-34.38525146484375,39.760126724243165,0.002852450307531684,-0.019553308923016575,0.02225882321705713,-1.0121162207614558,9.26014754818935,-2.512179535977981
45.0,-0.029115019789896904,-0.5714398802444339,0.12773409159854054,-0.9258437213301659,9.426208267211914,-2.457165938615799,0.022995500154793264,0.002252250318415463,-0.010280874758027494,-0.7035306972265244,-0.5424466437101364,0.3625246208906174,0.2808486396074295,0.9447039449214936,-1.3142450201511382,-0.25995330572128295,16.581750679016114,-37.361251525878906,-17.267625827789306,155.17810348273423,,,,,,,,,,,,,-0.9707896490350808,8.868705862819558,-2.338207544297865,-1.5360000629723072,-31.682626190185548,39.30450149536133,0.02440899939276278,-0.0018163743615150453,-0.011699875174090267,-0.9545880454033613,8.854282913208008,-2.32902011834085
46.0,0.06328446126780381,-0.37474863249443324,0.17487110837600103,-0.9032414760075363,9.465860787559958,-2.299408972263336,0.040224141897816285,-0.060916544691495156,0.04660710719797541,-0.7066267541810578,-0.5481071326078153,0.3512691554485583,0.2757986576533785,0.9080267005106982,-1.321316870988584,0.4738529710208668,21.043875846862793,-34.967251510620116,-17.494875717163087,153.42159940983936,none,false,false,false,,,,,,,,,-0.8396279750318796,9.090573927935433,-2.124066266651247,2.9257501081377266,-29.289001121520997,39.07912643432617,0.041636887239292264,-0.06497683887388192,0.045182230590166995,-0.8396279750318796,9.090573927935433,-2.124066266651247
47.0,0.01986455613064884,0.07509360991713435,0.26829781474102987,-0.9942948591000963,9.458805707421634,-2.273827934029079,0.015052846946412384,0.018863364168913058,-0.016814479738068166,-0.7065584394011167,-0.5560016874039527,0.3381282377361071,0.27679105958726147,0.8431908865966419,-1.338362493137322,0.6521379758815954,22.5300008392334,-38.50875160217285,-19.57650074005127,153.09552693038992,,,,,,,,,,,,,-0.9739545031628193,9.533467288064484,-2.0050575178448518,4.411875169277192,-32.83162628173828,36.995626296997074,0.016468687817491223,0.014806435415797894,-0.01824393511131996,-0.9739545031628193,9.533467288064484,-2.0050575178448518
48.0,-0.023585715157655524,0.05154896680923069,0.08129343116546378,-1.1233564343522577,9.41605308009129,-2.3816234773280573,0.04508517157542063,-0.025599264987178294,0.0034428929234398345,-0.7077250229377373,-0.5523658815552207,0.34734391961611955,0.26989559624709336,0.9119167614216898,-1.3239453820621265,-0.1222773229374605,18.289125862121583,-38.9160018157959,-18.430125770568846,154.6627545421822,none,false,false,false,,,,,,,,,-1.1465588791852854,9.467110722672706,-2.2998221596228143,0.16687501803040505,-33.23700157165527,38.143876495361326,0.046499264805449865,-0.029655515663691012,0.002024755032513948,-1.1465588791852854,9.467110722672706,-2.2998221596228143
49.0,-0.01861684150892393,-0.08147623832568084,-0.027758503918268597,-0.8938939988908201,9.51090411384507,-2.058632006739626,0.028787871135749144,-0.004978588501009905,-0.03780024840800774,-0.7084392291484493,-0.5516356064541506,0.33349066736674543,0.2860170564439037,0.7417858154466836,-1.3351907635679339,1.787515675667489,15.850125617980957,-37.01887641906738,-18.828750801086425,153.0122106423495,,,,,,,,,,,,,-0.912252517473552,9.428927685954783,-2.0859045542702814,-2.267625085860491,-31.339126663208006,37.74262626647949,0.03019554557573825,-0.009024628272077234,-0.039229703735154456,-0.912252517473552,9.428927685954783,-2.0859045542702814
50.0,0.0270829395931557,-0.34819116347497053,0.07523320226164737,-0.9744020299156113,9.511739485334642,-2.048997663035251,-0.015556372537770691,0.017358701936352777,0.018252450415828063,-0.7110291394856897,-0.55647874586653,0.328127258189834,0.27676570710569326,0.7609956925458247,-1.339144470668075,2.7632148454685024,16.348500747680664,-35.25450164794922,-18.144375686645507,152.77850586860131,none,false,false,false,,,,,,,,,-0.942750053203637,9.163824180565259,-1.9707891924288308,-1.7688750636577606,-29.57662612915039,38.42850135803223,-0.015277475708782082,0.01022673235044326,0.018845668048736188,-0.9330471114931154,9.15544306530672,-1.9631442013653178
51.0,0.032951049370654295,-0.4779105990581067,0.12531608709198708,-1.1187513942765717,9.489665692395503,-2.0879386875889088,-0.015235272134737214,0.025482425341696136,-0.01954950491833215,-0.7074916280142152,-0.5618325141396853,0.33149483268803887,0.27106799996725406,0.8321115994217372,-1.3467766447822647,0.8477287410509469,16.09800064086914,-34.691626434326174,-19.180500793457032,151.06614131062634,,,,,,,,,,,,,-1.085405995291289,9.011263804860635,-1.9621486047854517,-2.0201250755786897,-29.013376197814942,37.3931266784668,-0.013811262398220525,0.021428217378325096,-0.020972153656000254,-1.085405995291289,9.011263804860635,-1.9621486047854517
52.0,0.01792001954334624,-0.10753769361797501,0.2388421706170501,-1.1215771341732903,9.43150597927617,-2.3057057857513428,-0.005989338472193363,-0.02932659315182736,-0.036279780169328056,-0.7129551592995139,-0.5644039505837011,0.32608484286887973,0.257213735843406,0.8599865898197773,-1.338340623705995,-1.0439297989302991,15.42562562942505,-35.09437652587891,-17.296125602722167,153.7156573752122,none,false,false,false,,,,,,,,,-1.1199149023003803,9.344205856323242,-2.0743545537980475,-2.6910001039505005,-29.415376129150392,39.27487670898437,-0.00456985352816535,-0.03337205862900352,-0.037703308587272964,-1.103386814669505,9.32349746834998,-2.066351568801146
53.0,-0.08624870203306327,0.04017286629665016,0.08652548316755507,-1.1070810698046543,9.40264874637717,-2.424458570999674,-0.06943341509190083,0.0115731432342367,0.001440347080109733,-0.7177172952359265,-0.5545563526672892,0.33364529332312026,0.2553497544019529,0.8682992493752206,-1.3120092070928895,-0.7764756301842114,16.703250675201417,-37.349251708984376,-14.920875587463378,158.22565217233642,,,,,,,,,,,,,-1.1928861969344244,9.442320776457834,-2.337418915169074,-1.414125054180622,-31.6717512512207,41.653126373291016,-0.06802710447239109,0.007512128469303693,1.0891849783682588E-5,-1.1928861969344244,9.442320776457834,-2.337418915169074
54.0,-0.09246915529993381,0.0024502834541912234,-0.014961176031433484,-1.0947768799230164,9.391280931584975,-2.509586814571829,0.003101837159335321,-0.05696543993647484,0.01874852965713716,-0.7200043861772499,-0.5512018092707092,0.3338448229958029,0.25659045445568424,0.8626428164687812,-1.3073453178592758,-0.007020810071159811,18.566250705718993,-36.38550170898438,-13.817625541687011,159.21390278168923,none,false,false,false,,,,,,,,,-1.1867794704203511,9.393228367263196,-2.524051593799217,0.447375011742115,-30.708376274108886,42.75525146484375,0.004507843382181782,-0.061024386490530824,0.017329044256578472,-1.1867794704203511,9.393228367263196,-2.524051593799217
55.0,-0.07134831561199804,-0.4074414844928992,-0.08370243381745744,-0.9406081762644324,9.476256474409952,-2.210872555723285,-0.009837376797516452,-0.051096905848140466,-0.010334282523334617,-0.7207515345941676,-0.5508504427305543,0.3215702990494152,0.27029256640684485,0.721414564269604,-1.3182162731000693,2.6807064514349004,19.063500900268554,-34.13925163269043,-18.72300073623657,151.33643449628872,,,,,,,,,,,,,-1.0116089572438436,9.068329112364514,-2.2940585287564463,0.9450000318139792,-28.461376152038575,37.85062644958496,-0.008417450099040082,-0.05515247619351243,-0.011762375980246775,-1.0116089572438436,9.068329112364514,-2.2940585287564463
56.0,0.07498712624496251,-0.44823386293251577,0.23788364602289364,-0.9825710958125544,9.420054323533002,-2.4466205449665295,0.008584312939395508,-4.8664230944625304E-4,0.028985539209280237,-0.7290835111748939,-0.5482807311357236,0.319932695405156,0.25402727723121643,0.7667101726812475,-1.2971888161173053,1.7084470075719498,18.722625789642333,-37.35862663269043,-18.150750904083253,154.1136701609438,none,false,false,false,,,,,,,,,-0.9071647488585144,8.971329847971598,-2.2082574566205344,0.6018750209361314,-31.67850128173828,38.420251541137695,0.010001103156337551,-0.004541544640875038,0.027557965450207975,-0.9071647488585144,8.971329847971598,-2.2082574566205344
57.0,-1.239736937908548E-4,-0.11407953355055635,0.2107285270744031,-0.9870126164785706,9.429126739501953,-2.3747557177402006,0.051815716185524024,-0.012817450914310642,0.0017861382353423845,-0.7333241642111599,-0.5547949347165552,0.3060522775838871,0.24517220819350516,0.7278853259464302,-1.3019524836304164,1.4433202176991076,22.125750923156737,-38.88562644958496,-15.906375675201415,157.7639408476498,,,,,,,,,,,,,-0.9867653931493382,9.314529636118671,-2.1635392205697475,4.007625155448913,-33.206626434326175,40.666876525878905,0.05323155946789844,-0.016873019553794718,3.7710414738348217E-4,-0.9867653931493382,9.314529636118671,-2.1635392205697475
58.0,0.060052705864768983,0.11144040342347294,0.1164255198456493,-1.0957778955207151,9.381794546164718,-2.5396857869391347,0.029794362738874612,-0.005327451522188152,0.01859081011064643,-0.7325488755515978,-0.5496538328189476,0.3141583382498984,0.24861467717324987,0.754557937968011,-1.294892267853606,2.884120875713872,20.506500701904297,-38.696251678466794,-16.347750778198243,157.06909963195199,none,false,false,false,,,,,,,,,-1.0353015211648215,9.49274014491661,-2.4227427678073155,2.387625094950199,-33.01800113677979,40.22550148010254,0.03120306331445189,-0.009389092556803542,0.017155148522636176,-1.0353015211648215,9.49274014491661,-2.4227427678073155
59.0,0.009981999612334968,-0.06825823204057051,0.21654999795563445,-1.1956548802923448,9.37896737957945,-2.494839257533007,0.02796287164276484,-0.0410471528510351,0.0030740096538078667,-0.7230919658547581,-0.5652352648206277,0.31291902920987347,0.24281242519322008,0.8234996435665848,-1.3246572525194376,-0.14651402624526827,20.049750595092775,-34.62450164794922,-16.58737564086914,154.37774642679426,,,,,,,,,,,,,-1.1852257940733786,9.310231610099867,-2.2778065337402986,1.9308750726282597,-28.944751167297362,39.9862516784668,0.02937871249079114,-0.04510272308575487,0.0016513608746451906,-1.1852257940733786,9.310231610099867,-2.2778065337402986
60.0,0.045356155829686745,-0.21227178970972696,0.005648596887933273,-1.184927772657544,9.399319611343683,-2.41071685739592,-0.012684034667724725,-0.005871658245710158,0.02040173347098845,-0.7251622384669734,-0.5706168039172304,0.3037058699364756,0.23586477499966527,0.8054125788165074,-1.3309559810395335,-0.04534322841494691,20.85300064086914,-35.09512660980224,-16.389750671386718,154.93654662451783,none,false,false,false,,,,,,,,,-1.1312614471494857,9.157320730757005,-2.38575753805661,2.733750115633011,-29.41762626647949,40.18462631225586,-0.013534314697608352,-0.008578920385380294,0.01860563680255676,-1.1389941788077647,9.186562201556038,-2.4045545233815324
61.0,0.011950672244524011,-0.46844563716192644,0.19191968030674328,-1.3757016918446758,9.345812438738228,-2.5206786689191762,-0.0037097763454560007,0.11960730154878728,-0.07773106418881971,-0.727442985123927,-0.5683563782437013,0.3049385748287239,0.2320001079599456,0.8237321719084636,-1.32146684013971,-1.3617081429698679,22.52775074005127,-39.31087646484375,-14.605125637054444,159.5916147518758,,,,,,,,,,,,,-1.3632698677258916,8.876860797995388,-2.3283446699675947,4.407750127315521,-33.63112628936768,41.96812644958496,-0.0022966586754168614,0.11553947935987374,-0.0791523518446501,-1.3632698677258916,8.876860797995388,-2.3283446699675947
62.0,0.08524044007450964,-0.18817169277691373,0.2802833365276456,-1.4024587752772313,9.320902160569734,-2.573641845992967,-0.023612254623360203,-0.013492524811048425,-0.01580576059025,-0.7193827529748281,-0.5655571999503117,0.32605324568701727,0.23600303834559871,0.9339118880384109,-1.3166064795325785,-1.3691694806603825,22.11937572479248,-42.06937683105469,-15.346500625610352,159.9050432003965,none,false,false,false,,,,,,,,,-1.3167647752618672,9.132231310302137,-2.292866286693835,4.001625146865845,-36.39000144958496,41.22600143432617,-0.022200857832406957,-0.01755686237148064,-0.017237377225183974,-1.3167647752618672,9.132231310302137,-2.292866286693835
63.0,0.014111655066222055,0.11268736193380734,0.12969124223806405,-1.5030530183622153,9.302469527367318,-2.6067537399801877,-0.012475742073268584,-0.0011190600315164221,-0.0013573020973270482,-0.7170522218883628,-0.5710389631809575,0.3254387130831728,0.23070823762676504,0.9861435660041205,-1.3234185853807052,-2.5351672621056585,21.82350082397461,-41.956501693725585,-14.36662561416626,161.1304343117551,,,,,,,,,,,,,-1.4884456176273893,9.414649458214788,-2.4766115079274273,3.703500120639801,-36.278626403808595,42.2077515411377,-0.01106262347190687,-0.005171905949453611,-0.0027867573138215754,-1.4884456176273893,9.414649458214788,-2.4766115079274273
64.0,-0.052836424378933856,0.07497539184074484,0.07669211403631113,-1.4196115171208101,9.432414110969095,-2.1435790646309947,0.029135170949659513,-0.11295085821720753,0.03922389655867044,-0.7155266076910729,-0.5760259207557229,0.3090579787305757,0.24425538307895847,0.8305515524219064,-1.3511937459309895,0.5753955093084597,20.99062576293945,-40.34662658691406,-14.982375621795654,159.64139507575044,none,false,false,false,,,,,,,,,-1.471939775143184,9.506901918673048,-2.0664795084911236,2.8710001199692488,-34.66987663269043,41.58937644958496,0.03053443740103759,-0.11702058710358745,0.03779767098489637,-1.471939775143184,9.506901918673048,-2.0664795084911236
65.0,-0.043363178615679614,-0.23317326977849007,-0.04262438663604236,-1.2400251178458186,9.48689372940819,-2.0409688146987763,0.014363985776089796,0.020185273062290236,-0.012422649756922284,-0.7086771407929977,-0.5834190786475002,0.308460267463533,0.24872337665298197,0.8506478537427317,-1.3736483566831834,-1.4255462613436256,19.23525074005127,-38.34712631225586,-16.739250659942627,156.41556978516016,,,,,,,,,,,,,-1.2828772922258567,9.253230142121268,-2.0831243596454656,1.1160000339895486,-32.6688765335083,39.8336262512207,0.015782548631034274,0.016124258320409767,-0.013846657981192417,-1.2828772922258567,9.253230142121268,-2.0831243596454656
66.0,-0.01765869422039638,-0.4360600371717238,0.15036458764955693,-1.1893050682310964,9.46792527741077,-2.1424418909876954,-0.03359852876404629,-0.010241054185647882,7.818640648003886E-5,-0.7139083672277998,-0.5752174936898864,0.31288994420873056,0.24687543629419686,0.8540002579736238,-1.3518921243082178,-1.0539868232047205,19.82325084686279,-39.08625152587891,-15.588750610351562,158.2843683158764,none,false,false,false,,,,,,,,,-1.2064691746936125,9.031353389515596,-1.9916456832970475,1.7062500757724046,-33.40800178527832,40.983376541137694,-0.032184436689039655,-0.014298651244162637,-0.001338601769769893,-1.2064691746936125,9.031353389515596,-1.9916456832970475
67.0,0.05219350640413047,-0.44008090863428495,0.22842997956864242,-1.2232399494341104,9.462669589731952,-2.167465342153417,0.0017357670406967696,0.00952289623236007,0.0017030938703677442,-0.7149117146388139,-0.5687840563235896,0.32244559355301433,0.2466836911026794,0.8956383012308933,-1.3370154930813478,-1.6497595215787981,22.61325096130371,-39.895876541137696,-13.500375556945801,161.3139279117724,,,,,,,,,,,,,-1.1705807469379488,9.022127661374537,-1.9384708899709553,4.492500166893006,-34.218751754760746,43.07137626647949,0.003146163575203702,0.005449629287318428,2.8589104145470233E-4,-1.1705807469379488,9.022127661374537,-1.9384708899709553
68.0,0.015420811129825227,-0.14418382679714875,0.2330989693017567,-1.2446374238706102,9.392755527122349,-2.4350989834935057,-0.012083823783505782,-0.007720221893167963,0.01984987739364014,-0.7239478662902233,-0.5635993124223223,0.32236433847277773,0.23230143095932754,0.9203542780642416,-1.3094370552137786,-2.3571671013738595,25.086751022338866,-39.5115013885498,-12.28237548828125,162.75138641481587,none,false,false,false,,,,,,,,,-1.2287044672514587,9.248071030074476,-2.201601570887564,6.967875280380249,-33.83400161743164,44.29012649536133,-0.010673775319375243,-0.011783211770485722,0.018425000639741913,-1.2287044672514587,9.248071030074476,-2.201601570887564
69.0,0.039065739666111765,0.13408813200891018,0.11456898072035983,-1.209598471032511,9.365868039650492,-2.5342787209123667,0.03365074275153698,0.00230482662336366,-0.018326981030035727,-0.7196686118841171,-0.5610836517810821,0.3355004575848579,0.23207523852586745,0.9942524516582489,-1.301836165189743,-2.9816180634498597,24.81075107574463,-39.47325141906738,-15.157875747680665,159.01160501093284,,,,,,,,,,,,,-1.1829238199066407,9.493467760558175,-2.4135951706678562,6.691500263214111,-33.796126708984374,41.41500137329101,0.03654062513262033,-0.002598749720491469,-0.015702500296756624,-1.1829238199066407,9.493467760558175,-2.4135951706678562
70.0,0.014457636101938346,-0.01096913181975776,0.13919174181772212,-1.1956475797821493,9.282873350031236,-2.8212228101842545,0.005818136730322651,-0.04600992618475621,-0.0038419120817207823,-0.7289068126210979,-0.5597409728695365,0.32759178444450976,0.2177118339082774,0.9767698984520108,-1.2835576499209684,-2.719047464576422,21.571500930786133,-40.29450141906738,-18.267375812530517,155.6584207532801,none,false,false,false,,,,,,,,,-1.1807088815223645,9.271451889299879,-2.681567793383318,3.451500152051449,-34.61775154113769,38.30625167846679,0.007226837762430602,-0.050071568789837116,-0.005269485060125589,-1.1807088815223645,9.271451889299879,-2.681567793383318
71.0,0.11839262573002819,-0.10561548399866796,0.09600289112103044,-1.2949819477165447,9.304165391361012,-2.7232236231074616,0.05595171623224137,0.016373282951284564,0.023535416781098818,-0.7274577226124558,-0.566868784380894,0.3200961479953691,0.2151685495879136,0.9688311879541359,-1.2982516125136732,-2.9570033737257417,13.335000457763671,-37.548751487731934,-13.873125591278075,159.82014831550035,,,,,,,,,,,,,-1.17610152810812,9.19803131795397,-2.6266883570773927,-4.782000181674957,-31.87125129699707,42.69900131225586,0.05737659231960481,0.012315686641480117,0.02211323482276616,-1.17610152810812,9.19803131795397,-2.6266883570773927
72.0,0.059468079284571186,-0.36338930296720845,0.16265015796029775,-1.2591511719297654,9.326950469819627,-2.634355141384767,-0.050815098882090334,0.06359442947709029,-0.04053935611454567,-0.7293482092347475,-0.5594217399559399,0.3233491580675144,0.22263266485516386,0.9340713053646654,-1.2900248754142534,-3.00900402163515,17.944875755310058,-31.668001289367677,-11.41162540435791,160.26703145570755,none,false,false,false,,,,,,,,,-1.1991772869841593,8.963093021128437,-2.4711639869331132,-0.17325000695884227,-25.99050117492676,45.16275161743164,-0.049408787511067816,0.05953069285277535,-0.041955197603432554,-1.1991772869841593,8.963093021128437,-2.4711639869331132
73.0,0.042229459602750985,-0.4209592214502467,0.17972824515948327,-1.271211344237421,9.301397529302859,-2.7376554994022144,-7.427706903613665E-4,0.050475981018012935,-0.04229338227899051,-0.7283902618230558,-0.563520470086266,0.3268662057086533,0.21035019673553168,1.0090363563275804,-1.2837505340576172,-2.920740847494088,22.59975070953369,-33.26662643432617,-12.708750495910644,159.04041126419503,,,,,,,,,,,,,-1.228610353612834,8.879944534862743,-2.55743395522529,4.481625180244446,-27.58912609100342,43.864126434326174,6.659318528631154E-4,0.046403553204464855,-0.04372230413662014,-1.228610353612834,8.879944534862743,-2.55743395522529
74.0,-0.0650107104331255,-0.06735466185957194,0.20677495987154543,-1.1723064517974853,9.382304935455322,-2.5107796359062196,0.003653374328278005,-0.0022756255324929953,-0.019413625388406217,-0.7244562363624573,-0.5535356652736664,0.33703851759433745,0.2340851804614067,0.9646596956253052,-1.2875318348407745,-3.0174795532226564,23.686500816345216,-38.384626693725586,-15.810750617980958,157.5846318513855,none,false,false,false,,,,,,,,,-1.2447743218468208,9.310550916312945,-2.31808078997206,5.567250199317932,-32.70675144195557,40.76175155639648,0.0050682498421519995,-0.006323625091463328,-0.020840875557623803,-1.236961564157391,9.314436416625977,-2.3034915959835054
75.0,-0.15651923203475626,0.06686483027742189,0.059849386203888,-1.3724056032358432,9.344283646228266,-2.5323333763608744,-0.006277818401691084,-0.04335428900359308,0.01138958327161769,-0.7222695227931527,-0.5669850245410321,0.3261793729136972,0.22273839235890144,0.995793513807596,-1.305533296921674,-2.9508741649926877,23.703375854492187,-38.529376373291015,-16.147125663757325,157.26529581702368,,,,,,,,,,,,,-1.5284177225594426,9.410665147444782,-2.471945695725142,5.583750190734864,-32.851876411437985,40.42462646484375,-0.004865073996102985,-0.04742402032328149,0.009953921619693147,-1.5284177225594426,9.410665147444782,-2.471945695725142
76.0,-0.07448583183634916,-0.08425414056913687,-0.058833685048883505,-1.3097231512022491,9.35523237096201,-2.506769857784309,-0.016374751994626062,-0.0634582913434594,0.018832054085992644,-0.7286669936510596,-0.5623524124079412,0.3189665698769069,0.22448479140749072,0.9152220233832256,-1.2989688568776196,-2.401148725264143,22.32562587738037,-38.610001678466794,-15.041625556945801,158.76533928520507,none,false,false,false,,,,,,,,,-1.3837456148449738,9.270512788602622,-2.565112983531291,4.206750161647797,-32.93025119781494,41.52937652587891,-0.014950743991660305,-0.0675124994589772,0.017406683687194443,-1.3837456148449738,9.270512788602622,-2.565112983531291
77.0,-0.06594384261452611,-0.32671278494172823,0.10101461783051491,-1.1967691837572585,9.37113639420154,-2.5301667486920074,0.010466176642141506,-0.006528554100762396,-0.010858455837211189,-0.7330725391705831,-0.5528069337209066,0.3206707630671707,0.23181565792537204,0.862557022594938,-1.2853276402342553,-2.1050627465341605,21.9588756942749,-37.18125137329102,-15.145500526428222,157.8367685068264,,,,,,,,,,,,,-1.2622647594989223,9.043860692603916,-2.428657471841457,3.839250168800354,-31.50450138092041,41.42850166320801,0.011874877263371851,-0.010583455455215537,-0.012281985798229774,-1.2622647594989223,9.043860692603916,-2.428657471841457
78.0,0.01844189263416897,-0.5080128143181896,0.10955444218056036,-1.051093704924725,9.450997314830818,-2.273889745816146,-2.573019880248178E-4,0.03322054376124893,1.905865432454808E-5,-0.7348990741342601,-0.550396458347245,0.31642105998379166,0.23726813775478023,0.8122607221697816,-1.285029144570379,-1.0277279084271724,21.41287582397461,-36.685501403808594,-16.363500690460206,155.97039272380965,none,false,false,false,,,,,,,,,-1.0323074803973484,8.942495449934855,-2.1638822756928975,3.293625146150589,-31.00725109100342,40.20787658691406,0.0011530934169077048,0.029155445640150567,-0.0014063107439934617,-1.0323074803973484,8.942495449934855,-2.1638822756928975
79.0,-0.0941250584654364,-0.2577864733323747,0.1860319502947295,-0.9452621104086146,9.407816868202358,-2.4857283024226917,0.03503284314829929,-0.04863725543734344,0.017502941802947546,-0.7365727868734622,-0.554638561664843,0.3146800892610176,0.2238809816977557,0.8594188660967583,-1.2817370692888896,-1.5941283305486043,21.578625755310057,-39.2598762512207,-14.10075059890747,160.26840263173335,,,,,,,,,,,,,-1.0390176983440624,9.149521018944535,-2.2991868800520168,3.459000129029155,-33.5812516784668,42.472501525878904,0.036446935880710095,-0.05270159518455758,0.016078063483149104,-1.0390176983440624,9.149521018944535,-2.2991868800520168
80.0,0.040614898362667254,-0.09329178800983907,0.20309768250156748,-1.18146018816693,9.463976671199987,-2.1650566181333937,0.020709406003577284,0.009250618558893404,-0.012826980497356099,-0.7287807978025758,-0.5591924467889389,0.3158043139051683,0.23660126697308947,0.8395346609672697,-1.304709531293057,-0.7484114972671659,22.259250946044922,-38.249626312255856,-15.98062566757202,157.36259619500325,none,false,false,false,,,,,,,,,-1.140334217486405,9.370236042702553,-1.9614372181125206,4.13850016117096,-32.5710013961792,40.59187644958496,0.022121162458073974,0.005203218240807257,-0.014246905831122163,-1.140334217486405,9.370236042702553,-1.9614372181125206
81.0,0.005600015030187719,0.19653979309049308,0.1811551643791152,-0.8702979417992573,9.427066541185566,-2.4068633376383315,0.028252206226883857,0.040224140774750825,-0.0599850476719439,-0.73664137487318,-0.5403692605448704,0.32420260882845114,0.24301565526162877,0.8080886584870955,-1.267439207609962,0.40327654399123847,20.71275077819824,-39.20212638854981,-16.024500713348388,157.8143046354522,,,,,,,,,,,,,-0.8644573986438998,9.62315045151056,-2.2251780570722093,2.5950000914931297,-33.525001525878906,40.54912658691406,0.02966764672458464,0.03616115134026782,-0.06141127465183244,-0.8644573986438998,9.62315045151056,-2.2251780570722093
82.0,0.005785229219363468,-0.07865121167632613,0.13178508123843977,-0.7605812264846104,9.47280467382752,-2.3262030511799425,-0.023127227555960417,0.04280061903640185,-0.0022027216722617054,-0.7258052288895787,-0.5434233109549721,0.3370621962712543,0.252495268193802,0.869704523299,-1.2848674436606984,-0.40436098363139844,21.467250785827638,-39.26587654113769,-16.98825071334839,156.6488762725815,none,false,false,false,,,,,,,,,-0.754373800825549,9.393659851338604,-2.1939416868925683,3.348750114440918,-33.58762634277344,39.58275131225586,-0.021716831468672742,0.03873007384931097,-0.003626732948687997,-0.754373800825549,9.393659851338604,-2.1939416868925683
83.0,0.05564228460357031,-0.1578311601964136,-0.012541176422553904,-0.8978292889454785,9.405769133100323,-2.5054341963693205,0.006792768530145872,-0.044607965750437156,0.03418223076846962,-0.7297571804009232,-0.5469427295759612,0.33617961728105356,0.23399211831536948,0.9267898388937408,-1.2729813655217488,-2.1308005230099547,21.147000770568848,-39.44925148010254,-16.741125621795653,157.01092699781785,,,,,,,,,,,,,-0.8420235715605611,9.247431306278004,-2.5174442336839786,3.026250123977661,-33.77175163269043,39.83212661743164,0.008221690953873536,-0.048664214491259815,0.03274791552137364,-0.8420235715605611,9.247431306278004,-2.5174442336839786
84.0,0.027139220323879273,-0.42187272287905214,0.17347084737819388,-1.094629716873169,9.329147844314575,-2.7249969053268432,-0.06441462467424572,0.05898749898187816,-0.008496124371886253,-0.7221800595521927,-0.5485565930604934,0.35660632967948913,0.22298337876796723,1.0789957058429718,-1.258764499425888,-2.918443429470062,21.628500709533693,-38.850751342773435,-14.461500549316407,159.59745782707415,none,false,false,false,,,,,,,,,-1.0670685502141715,8.906826429367065,-2.551018623560667,3.5092501401901246,-33.172501678466794,42.109501876831054,-0.06300662488676607,0.05492574937175959,-0.009912374364212155,-1.0670685502141715,8.906826429367065,-2.551018623560667
85.0,0.00833496875038334,-0.33528539348466724,0.2351851658393428,-1.2254157574737774,9.159763158536425,-3.210892076585807,-0.045624386610499786,-0.1254579654401716,0.0040886030651117655,-0.7255197079742656,-0.5579902091447044,0.3565262781054366,0.18622629578207053,1.1933452311684103,-1.2311849804485546,-2.748305175818649,25.659751052856446,-40.52437660217285,-12.366750469207764,162.9746182458873,,,,,,,,,,,,,-1.2166074102415758,8.823957831251855,-2.9752354306333206,7.5405002689361575,-34.84612648010254,44.20537628173828,-0.044204902164090204,-0.1295155626539068,0.002667769588822243,-1.2166074102415758,8.823957831251855,-2.9752354306333206
86.0,0.021985771507946866,0.035590103762869786,0.20403104314423803,-1.2026803800375154,9.142816732425501,-3.2417598053960517,0.09578032105570973,-0.039371287809813964,0.03665396012365818,-0.7282053680703191,-0.5886738176393037,0.3110758405510742,0.1608664337361213,1.1630141357384105,-1.279400620130029,-2.666834052246396,25.774876098632813,-42.07837654113769,-11.059875459671021,165.27253970256075,none,false,false,false,,,,,,,,,-1.1802119367783612,9.177934618279485,-3.0371941953602404,7.656750297546386,-36.40050163269043,45.512626266479494,0.09719071522502616,-0.043432302943587596,0.03524220339253102,-1.1802119367783612,9.177934618279485,-3.0371941953602404
87.0,-0.03723439435456313,0.06719354065317734,0.09540577447235894,-1.2425671880151712,9.282783218458587,-2.8074592550595603,-0.04084289275274119,0.07732218220446478,-0.05421139772835316,-0.72105739514033,-0.5877208581157759,0.31486861407756805,0.18651740048445908,1.1329414715953903,-1.3080481185632593,-2.740393187485489,24.642001113891602,-41.82150146484375,-11.842875499725341,164.17250656367713,,,,,,,,,,,,,-1.2793191855079402,9.349398954241883,-2.7115677758759142,6.523500289916992,-36.1425016784668,44.728876724243165,-0.039428797797026,0.07326593156903982,-0.05563492615542868,-1.2793191855079402,9.349398954241883,-2.7115677758759142
88.0,-0.06634545607473885,-0.08970376492666984,0.02743852114314121,-1.1783074890032854,9.199268775411172,-3.0965063076208135,-0.08553589000781574,-0.011138860634205366,0.005280816503385506,-0.7200700162660958,-0.5612437524417839,0.35549211649611445,0.1989026041609226,1.183958902217374,-1.2524900141328867,-2.7743422583778306,21.23250068664551,-42.537751541137695,-12.73462553024292,163.36405854473568,none,false,false,false,,,,,,,,,-1.2441461003514578,9.109090502899472,-3.0685991556337564,3.113625114634633,-36.85950119018555,43.83825157165527,-0.08412004938109381,-0.015193068159578165,0.0038418309338907205,-1.2441461003514578,9.109090502899472,-3.0685991556337564
89.0,-0.03691039922391521,-0.410923232853997,0.039247626803961454,-1.2300747936847163,9.254391025094424,-2.9003102685890947,0.030411764504570588,-9.7193630576572E-4,0.002577450888815756,-0.7130385111359989,-0.5545851044795093,0.3710203427894443,0.21385864679719888,1.2148600547921424,-1.253360828932594,-2.791291540744258,19.981125679016113,-40.995001525878905,-12.103125400543213,163.5292046485275,,,,,,,,,,,,,-1.2665882836936004,8.843021000132842,-2.8605633594241797,1.8648750742524862,-35.31787651062012,44.47087661743164,0.0318285537536676,-0.005038970524408654,0.0011498765316883138,-1.2665882836936004,8.843021000132842,-2.8605633594241797
90.0,0.02491785356738042,-0.46991760154614354,0.21739438802262048,-1.1641984151141478,9.311346309019788,-2.7496677318421923,0.05106014928937253,0.05503267277548514,0.019606683297211876,-0.7145094942338396,-0.5561130837638779,0.3649448044229262,0.21547268257282748,1.1884939599745343,-1.2612239393857445,-2.8100505158452704,23.096250953674318,-40.479001693725586,-12.390375461578369,162.96911704968343,none,false,false,false,,,,,,,,,-1.1389337167521882,8.84093949818375,-2.5317209014798157,4.97812518119812,-34.8011262512207,44.181001586914064,0.052470544316243414,0.05096757407346279,0.018193564442272235,-1.1389337167521882,8.84093949818375,-2.5317209014798157
91.0,0.062370823299074,-0.11787915565803939,0.14351307708477856,-1.3045680955344556,9.356357191123214,-2.534966894224578,0.03680686250456846,0.00862879857567011,0.006920833802581125,-0.7035531267231586,-0.5566177344789692,0.3743249899616428,0.2335782446989826,1.2139468648854423,-1.2817537515771156,-2.8265615771798527,23.194875984191896,-42.255751342773436,-15.856125736236573,159.46013516812832,,,,,,,,,,,,,-1.2417177039326406,9.237988701053695,-2.3909442413086985,5.074500193595886,-36.57712661743164,40.716376571655275,0.03822095566155279,0.004565808712048274,0.005494606950521177,-1.2417177039326406,9.237988701053695,-2.3909442413086985
92.0,-0.010810255017684827,0.13980336944655616,0.16814285370585794,-1.4951518986484793,9.326321007001518,-2.540876089936436,0.015540222743397007,0.019552226842261187,0.021968688004382765,-0.6983839786878907,-0.556492799579507,0.379240358229911,0.24107415752835792,1.2288922213091709,-1.2894783940645729,-2.830824082440669,22.371000785827636,-41.79187675476074,-16.298250713348388,158.69947371795598,none,false,false,false,,,,,,,,,-1.5054446326460376,9.465636069231694,-2.3722010993278855,4.251375193595886,-36.11475128173828,40.273126449584964,0.016945173290770242,0.01549121247383185,0.020541954425965795,-1.5054446326460376,9.465636069231694,-2.3722010993278855
93.0,-0.03765991230166572,-0.08864248591456927,-0.001387765619666407,-1.4134272009718651,9.301276422014423,-2.6531793685520397,-0.004297548987190513,-0.007923774854919198,-0.04521862682247279,-0.698941198049807,-0.5518905356818554,0.3868271866265465,0.2383689230271414,1.2525621290300406,-1.2737956958658554,-2.816021302167107,21.222750778198243,-40.66500137329101,-16.525125617980958,157.90919003012996,,,,,,,,,,,,,-1.4505897723138332,9.212175448735556,-2.6539942327083326,3.10312514051795,-34.985626678466794,40.0485018157959,-0.002886152278412791,-0.011984068850128381,-0.04664350547097331,-1.4505897723138332,9.212175448735556,-2.6539942327083326
94.0,0.08524800003229613,-0.40922068177473425,0.06497865183149824,-1.4413893848362536,9.339380245397587,-2.5114606843136325,0.031140346057012235,0.12645507398255096,-0.020531064784615347,-0.6957470464706421,-0.5391189235448838,0.40022643119096757,0.2532985107600689,1.2397858250141143,-1.26504412651062,-2.8753098750114443,20.129250869750976,-40.38487648010254,-16.770375843048097,157.4804078186621,none,false,false,false,,,,,,,,,-1.3556213554566596,8.929632583467088,-2.445934272638642,2.0092500771582125,-34.70737632751465,39.801001434326174,0.031495750597678125,0.1244649994932115,-0.024392499858513474,-1.3556213554566596,8.929632583467088,-2.445934272638642
95.0,0.0790193828767823,-0.3855158101548167,0.24060187248659193,-1.674162829623503,9.366702210669423,-2.25124659725264,-0.010282842360217781,0.06441335699648834,-0.025909313722057084,-0.6857296187503665,-0.5450752424258812,0.40046629397308126,0.2679071971306614,1.2523957946721245,-1.2961820188690634,-2.8841682976367427,21.4912508392334,-39.654001541137696,-20.184750747680663,153.04018581873817,,,,,,,,,,,,,-1.5946191842941677,8.98071512521482,-2.0101809728087163,3.3742501366883517,-33.975751342773435,36.38887672424316,-0.008863358552951147,0.060357107643914575,-0.027323407404051692,-1.5946191842941677,8.98071512521482,-2.0101809728087163
96.0,-0.012164116472854177,0.17834732367767778,0.18715403194880426,-1.7693068981170654,9.285643492594804,-2.511811851274849,-0.10835136085896209,0.016589852049946785,0.023358663216712747,-0.6860381294004988,-0.5379500141238222,0.4125401259648918,0.26227100990196267,1.290387001368079,-1.2706209999499936,-2.858975880216844,20.837250862121582,-40.51612648010254,-21.10650074005127,152.49072359961016,none,false,false,false,,,,,,,,,-1.7809827544606558,9.463472205813568,-2.3241951604290763,2.7168751066178083,-34.83712654113769,35.466001739501955,-0.10694368694457088,0.01252611466489806,0.021933292130948884,-1.7809827544606558,9.463472205813568,-2.3241951604290763
97.0,-0.34819326982102994,-0.0022928848059154024,0.246223626384402,-0.18144562329147376,8.790715343811932,-3.6606719587363448,-0.15213700981500247,-0.3918520802558929,-0.5868297770308951,-0.7168677256387823,-0.43431662607426735,0.46717194920661403,0.2569062078700346,1.2660927597214193,-1.0424429108114803,-1.6415474344702328,10.710000425577164,-43.7943766784668,-15.38100061416626,160.62525624338673,,,,,,,,,,,,,-0.5292882620192626,8.787873913260068,-3.413866333517374,-7.407375268936157,-38.11612632751465,41.19112670898438,-0.1507269581460266,-0.395905635972489,-0.588247912867433,-0.5292882620192626,8.787873913260068,-3.413866333517374
98.0,-0.0719497524946928,-0.1473599492246285,0.062463747860165314,7.834521520255816,4.960432475156123,-2.674739382054546,0.39553440212373536,0.05407834286792296,-0.6328335365022321,-0.8365512877702713,-0.10590469043701888,0.25379486322402955,0.462256638109684,0.38381722643971444,-0.42781748324632646,2.2204557383060455,-29.68500120162964,-30.602626190185546,-18.228375701904298,148.24533650538697,none,false,false,false,,,,,,,,,7.7556241243192465,4.8149972410485296,-2.6144585551896897,-47.80387699127197,-24.9247509765625,38.34525157928467,0.4020596237992868,0.04948212432209402,-0.6407651222171262,7.7556241243192465,4.8149972410485296,-2.6144585551896897
99.0,0.10447882668243028,-0.004574090096296049,0.27625053152259366,9.505453408933153,1.609242726911736,-0.5350284673200518,0.9540113935283586,0.17438100557774305,-0.3601866379270659,-0.5863525096107932,-0.013226597940814043,0.08073787261645182,0.7847161643645343,0.10114805097235184,-0.14829393913375907,1.2945160585291244,-38.96175170898437,7.416750230789185,-28.31925109863281,76.16373365132146,,,,,,,,,,,,,9.609397425371057,1.6042956638642971,-0.25852942387299505,-57.07912742614746,13.092375509142876,28.254376258850098,0.955430878581954,0.17031531622998564,-0.3615980353936845,9.609397425371057,1.6042956638642971,-0.25852942387299505
100.0,-0.13414726767507268,0.0274904134070001,0.09307126830354696,9.655876409439813,1.6495006396656944,-0.20941618812226115,0.19997410600384077,-0.05296696473046073,-9.232143804963146E-4,-0.4102550490600307,0.0026727806004445726,0.0852103169734885,0.9077903439358967,0.07558468547536105,-0.15282577149024823,0.8545893459785275,-43.698751258850095,20.88750057220459,-22.641562938690186,47.30389542763721,none,false,false,false,,,,,,,,,9.532311212448846,1.669792930285136,-0.12150714903449018,-61.81593990325928,26.56781358718872,33.931876754760744,0.20841981517150998,-0.051347865677643115,0.009759146004642656,9.532311212448846,1.669792930285136,-0.12150714903449018
