seconds_elapsed,accelerometer_z,accelerometer_y,accelerometer_x,gravity_z,gravity_y,gravity_x,gyroscope_z,gyroscope_y,gyroscope_x,orientation_qz,orientation_qy,orientation_qx,orientation_qw,orientation_roll,orientation_pitch,orientation_yaw,magnetometer_z,magnetometer_y,magnetometer_x,compass_magneticBearing,network_type,network_isConnected,network_isInternetReachable,network_isWifiEnabled,network_isConnectionExpensive,network_ssid,network_bssid,network_strength,network_ipAddress,network_frequency,network_cellularGeneration,network_carrier,totalAcceleration_z,totalAcceleration_y,totalAcceleration_x,magnetometerUncalibrated_z,magnetometerUncalibrated_y,magnetometerUncalibrated_x,gyroscopeUncalibrated_z,gyroscopeUncalibrated_y,gyroscopeUncalibrated_x,accelerometerUncalibrated_z,accelerometerUncalibrated_y,accelerometerUncalibrated_x
0.0,-0.017079921972753664,-0.16923194764703922,-0.2680811749689363,8.038392871938726,4.906944074938374,-1.8617150891717442,0.44761480651694635,0.8038025791351886,-0.1372817953562607,-0.029941133352824383,0.06609273329991588,0.2141316114200486,0.9609580218791962,0.1610987183851345,-0.44408175812827216,0.09924704078132184,-50.918480417002804,14.369429951128753,1.2040760581908019,124.07604767266686,,,,,,,,,,,,,8.029874573471727,4.736217967925533,-2.115703317426866,-59.38858919558318,-1.8456522537314373,53.847963416058086,0.45739752758846997,0.8165248591289088,-0.13293076559369052,8.032894945662955,4.730274679868118,-2.136874005522417
1.0,0.13011030155685868,-1.1882401644113925,-0.2619495077777912,0.27011160668686474,6.81430721282959,5.081156363139058,1.4403960682113892,0.002545106571679022,0.7286906865991506,0.5155351806690197,0.15418274235902446,0.6250124384861181,0.5001229401862267,-1.1785020298591935,-0.8150890434142386,-2.250834494829178,-18.92662576675415,-30.232126426696777,-0.10462502002716065,190.1683078188466,,,,,,,,,,,,,0.4004287279054227,5.6255319590615755,4.818870529384896,-27.395251083374024,-46.449376878738406,52.53750205993652,1.441846562266423,-0.0017052725980094836,0.7270676416582337,0.4004287279054227,5.6255319590615755,4.818870529384896
2.0,0.18779666640929302,0.6658774815938052,0.9613184323716982,2.817799103610656,8.663372077193914,3.2024798334813585,-0.6932409613181164,0.14926237671977222,0.07741794552156094,0.5340096754770652,0.2825263540680502,0.5256849308224285,0.5895326578733968,-0.6093796433186999,-1.1770683176377241,-1.8740322379504932,-22.527375793457033,-33.31237621307373,15.929625597000122,205.22071091322672,none,false,false,false,,,,,,,,,3.005085432061962,9.328765177259259,4.163231063122843,-30.995626373291017,-49.52925186157226,68.57287788391113,-0.6917992527827178,0.14501076875402047,0.0758101508242659,3.005085432061962,9.328765177259259,4.163231063122843
3.0,-0.12653583100256924,-0.6202776605392447,-0.16269208051006098,1.4171950103032707,9.517438841338205,1.79832656666784,0.00792781749338496,-0.1188040432821521,-0.05244142079598033,0.43601588358973514,0.311213887268954,0.5602691982052114,0.6309036335142533,-0.4878363237522616,-1.3651488086964825,-1.6083025035291616,-23.45775089263916,-31.117876014709474,24.43725116729736,218.1594557528923,,,,,,,,,,,,,1.290175305919187,8.89667267374473,1.6352272972021953,-31.92637649536133,-47.33550178527832,77.08012802124023,0.009352696073405883,-0.12305171468167328,-0.054063112105188126,1.290175305919187,8.89667267374473,1.6352272972021953
4.0,0.09007731656196948,0.19066865362373053,-0.20474490127069692,1.2069832723514706,9.523591967190013,1.8235099561074202,-0.07078527183373376,-0.12514678197036874,0.022377104157268412,0.4142992239372403,0.2708446858268158,0.58193005825959,0.6444224387991662,-0.638343881742627,-1.3477122316173478,-1.6573516352503908,-24.429751014709474,-30.857251281738282,23.5368758392334,217.30382242774417,none,false,false,false,,,,,,,,,1.296639773410325,9.7137445936016,1.618338305430085,-32.89687660217285,-47.07487655639648,76.18087814331055,-0.06934764837883044,-0.129399749708574,0.020770668536240218,1.296639773410325,9.7137445936016,1.618338305430085
5.0,-0.07018535856461834,0.029780060974973262,-0.07738035869332824,1.003574263931501,9.513862279382083,2.017919026979125,0.0023685052132635725,-0.07496580686511509,0.02197573588722769,0.39135881255168725,0.24997224739872584,0.6049976154129104,0.6462958590819103,-0.8093798237271829,-1.3613011978640415,-1.756584409439918,-23.11275089263916,-32.55450157165527,20.731500778198242,212.46964433294022,,,,,,,,,,,,,0.9330015254972299,9.543191994770918,1.94014168298333,-31.583251304626465,-48.7717520904541,73.37587799072266,0.0038095583372256335,-0.07921347731505246,0.020352696616421726,0.9330015254972299,9.543191994770918,1.94014168298333
6.0,-0.03871250301968343,-0.41720339703825443,-0.270381252691703,0.9386289166932059,9.457547659921174,2.2657989629424446,-0.034865876850672065,0.1274074993468821,0.024638624414801597,0.39295410962388067,0.23738376309375953,0.615432597032868,0.6397812213047896,-0.9351192028215616,-1.3451330756196882,-1.8658100047914108,-24.985501174926757,-32.8803763961792,16.496250705718992,206.56915604073126,none,false,false,false,,,,,,,,,0.9049882786165849,9.019238682354198,1.99846333510005,-33.45337677001953,-49.09762725830078,69.14025253295898,-0.03343587374780327,0.12315874957013875,0.02302162505686283,0.899642121931999,9.039875200479338,1.994943664916376
7.0,0.006755516557616532,-0.13077724068471702,-0.3535362080802581,1.031721287434644,9.442339746078643,2.3203409390874428,0.04341090607055116,3.6666772383100847E-4,0.03216960730359835,0.399737349152565,0.23874315053224562,0.6107190859317779,0.6399654495716095,-0.9088145697116852,-1.3370823228359223,-1.852815568447113,-25.98675102233887,-33.037876510620116,19.21912567138672,210.19409492181853,,,,,,,,,,,,,1.0381054978375093,9.31107222679818,1.966431773917768,-34.45500171661377,-49.255502243041995,71.86387832641601,0.044856004941952875,-0.0038877445473974826,0.030565441398899638,1.0381054978375093,9.31107222679818,1.966431773917768
8.0,0.06506888199524552,0.19726153560936927,-0.21822342189147556,0.9852159046659282,9.399984135347253,2.4855116512261186,0.05063267249503348,-0.05344938070024594,-0.030463737684606324,0.4012040884471407,0.2296779415771073,0.6141219296876121,0.6387072304884592,-0.944455977748422,-1.323089414951848,-1.8773705725576364,-25.563001098632814,-33.327376441955565,17.9415008354187,208.28121789937953,none,false,false,false,,,,,,,,,1.0499456373554672,9.596765148873423,2.266872164811574,-34.03125164031982,-49.54462715148926,70.58662826538085,0.05208391168311533,-0.057698266709795096,-0.032076979360294224,1.0499456373554672,9.596765148873423,2.266872164811574
9.0,0.18913264321808768,0.05429449312315129,0.034088787853275196,0.964957348190912,9.420126905535707,2.3748530633378735,0.07261347899432569,-0.07038651910774849,0.006213112775345936,0.39286041554838125,0.2233902080224292,0.6156684254655743,0.6444273768085065,-0.9296320688606489,-1.3255855151922395,-1.8392362063473995,-23.052750968933104,-33.60075172424317,16.75725061416626,206.30564225542705,,,,,,,,,,,,,1.153550546173707,9.473903877900378,2.408459521756314,-31.521001434326173,-49.81725257873535,69.4012530517578,0.07405318537106116,-0.07463823376661714,0.004603553640966614,1.153550546173707,9.473903877900378,2.408459521756314
10.0,-0.02541980416714853,-0.6217823351422945,-0.05720024665488916,0.8875417741490346,9.45921745487288,2.323127031326294,-0.04576980277416435,-0.00481794517727034,-0.0029065586248468054,0.4075327349059722,0.22742432341271757,0.6162687925731435,0.6336962165785771,-1.0006546524225497,-1.3131965024798524,-1.9406057958509408,-23.51025089263916,-35.69475143432617,17.293875732421874,205.71402754916923,none,false,false,false,,,,,,,,,0.8617265102197873,8.836966561336144,2.2654501023227533,-31.97700122833252,-51.912002410888675,69.93675323486327,-0.04433217712004881,-0.009065469708478097,-0.0045211642270557365,0.8617265102197873,8.836966561336144,2.2654501023227533
11.0,-0.009703859826549888,-0.036914811749011275,-0.22713517001830041,0.7601556224693166,9.483614676069505,2.2503583773527995,-0.051925988909373486,-0.03514418208805641,0.013763614441498671,0.39651927173137663,0.23782847866415976,0.6188859885931015,0.6342211401462555,-0.9984230035543442,-1.34363911151886,-1.93559623837471,-22.00612579345703,-33.83437648773193,15.703500747680664,204.95352967802205,,,,,,,,,,,,,0.7442525090041137,9.430798946040692,2.0263441598393244,-30.47100112915039,-50.05087745666504,68.34675308227538,-0.050489727006579686,-0.03939306975738837,0.012146287371800972,0.7523445341363549,9.44498743057251,2.0262270996905865
12.0,-0.05415669282999738,0.2560141766720479,-0.35450039704394815,0.7806176327832854,9.488108295025212,2.204293379689207,-0.0317570535502959,-0.01656126214357296,-0.036577722062310664,0.37807663917541506,0.23420523077249528,0.6226969999074936,0.6426669907569885,-0.9729374843835831,-1.3609720301628112,-1.8741874718666076,-23.064750900268553,-33.18487651824951,17.590125732421875,207.87573003136808,none,false,false,false,,,,,,,,,0.7182765060433132,9.716460779601453,1.842679495028421,-31.534876289367677,-49.402877502441406,70.23375335693359,-0.02797987490426749,-0.025068998876959084,-0.03976775026414543,0.7262688476942701,9.74362326140451,1.8494481028306602
13.0,-0.1420534321759809,-0.04686335868695203,-0.07148472889892611,0.9201172923340517,9.412262224683575,2.46454338349548,0.0011299500878125723,0.03599232687882268,0.03497809403124127,0.394967469514585,0.22426675610682545,0.6189706255407894,0.639989408792234,-0.9854041998292885,-1.3259005149205525,-1.8995525907067692,-22.218750801086426,-33.03787654876709,16.275000667572023,206.19039591243407,,,,,,,,,,,,,0.7776676850649071,9.364909284255084,2.3925618788629186,-30.68700122833252,-49.25400230407715,68.91900299072266,0.002579827839047602,0.03173663309489441,0.033355321642933505,0.7776676850649071,9.364909284255084,2.3925618788629186
14.0,0.017862295255867192,-0.44565366084991703,-0.1820949308878493,0.856641416502471,9.47559108356438,2.2721936207006475,-0.010285539274085678,0.06574926320828643,0.02875502413942241,0.39964146690793556,0.23435103952294528,0.6190894789034778,0.6337464233436206,-1.0144829921203085,-1.334706711296988,-1.9513922528465195,-23.598000793457032,-32.3100016784668,15.058500633239746,204.94923375566614,none,false,false,false,,,,,,,,,0.8741228128552879,9.029421211469291,2.0896218882338835,-32.0677513885498,-48.52875198364258,67.70175338745118,-0.008849877727163188,0.06149754873203004,0.027140073359523918,0.8741228128552879,9.029421211469291,2.0896218882338835
15.0,0.02951941321667868,-0.17534581727950888,-0.30906061625436826,0.7233104214948767,9.47689712748808,2.286217606535145,-0.062273885229473365,0.01882388590290995,0.04782549545427065,0.38638225402317794,0.23207019590863995,0.6257553661570829,0.636003851890564,-1.0470047154847313,-1.3508824332087648,-1.9584178211642247,-26.267251091003416,-32.301376304626466,17.567250652313234,208.46968803475983,,,,,,,,,,,,,0.7524765024746896,9.301069554160623,1.9766309706713348,-34.73550132751465,-48.518251953125,70.21050247192383,-0.061430874103680255,0.013766498444601894,0.04646949978079647,0.7524765024746896,9.301069554160623,1.9766309706713348
16.0,0.05460124239694364,0.15290374358416314,-0.3292400153851745,0.6405675713717938,9.534856023788452,2.09176926612854,0.05212058871527951,-0.005450122788840649,0.02020845644395141,0.3774434540531423,0.23632240487207282,0.6260983519034811,0.639386253191693,-1.0097824771805566,-1.3674537073267568,-1.9129132457298808,-33.23362651824951,-32.20387634277344,19.670625686645508,211.4189914599261,none,false,false,false,,,,,,,,,0.7002330301329494,9.711532964706421,1.7601870702207087,-41.70300140380859,-48.42187690734863,72.31350311279297,0.053553554279656676,-0.009696446076108544,0.018593505079693654,0.6910025049185399,9.688735116826425,1.7558777932778444
17.0,0.13449675584321513,0.06715740307289012,-0.04729733257280553,0.7366154927979497,9.525299736097747,2.0574109449106106,0.05621163319279947,-0.0729417088625971,-0.027181435943498176,0.3802541871281231,0.23458992149315627,0.6257012737732307,0.6385910055216621,-1.030343343814214,-1.3626195881880967,-1.9355482272073334,-36.65700160980224,-28.775251197814942,13.034250478744507,202.84954110507672,,,,,,,,,,,,,0.8708206282189006,9.591925476111617,2.009638322553798,-45.12337669372559,-44.99212661743164,65.67750289916992,0.057656064260714124,-0.07718923289587001,-0.02879331722431401,0.8708206282189006,9.591925476111617,2.009638322553798
18.0,-0.05368695151286595,-0.49219898352719316,0.027512230590512655,0.7187014231176088,9.550740791089607,1.9875883815264461,-0.011114357297520826,0.02919220183007788,-0.0170323027039666,0.3874803025915165,0.24505209034741526,0.6173419500842239,0.6386822805260167,-0.9525569033141088,-1.3655987399997134,-1.8855417689891776,-23.44462593078613,-22.916626014709472,11.484750490188599,206.50342477670313,none,false,false,false,,,,,,,,,0.6769845307897776,9.053455929756165,1.9990801069885493,-31.911751251220704,-39.13350128173828,64.12875274658204,-0.012478125309571623,0.01993750042747706,-0.01754362558014691,0.6769845307897776,9.053455929756165,1.9990801069885493
19.0,-0.03872838443938163,-0.09893381034973825,-0.31374431083913623,0.7009701563580202,9.584426001747056,1.8151564916761795,-0.04379512437153608,-0.07036287403665482,-0.022497749542817472,0.3888058119481153,0.25700592079965195,0.6146743350689954,0.635324237370255,-0.9369996355311705,-1.3797614255754074,-1.8906853399654426,-13.414500503540038,-25.17900104522705,20.724000930786133,218.82280939501018,,,,,,,,,,,,,0.6620242939616489,9.484983123174988,1.5009609532616295,-21.88162586212158,-41.395876541137696,73.36725257873535,-0.042363750338554385,-0.0746198746887967,-0.024107874082401396,0.6620242939616489,9.484983123174988,1.5009609532616295
20.0,0.052652641194872556,0.20285714142024516,-0.27714547570794823,0.6840305245748841,9.528027732773582,2.062668255060026,0.0018751227990815452,-0.0059030629950119,0.012900735402260633,0.3900552076101303,0.2451982893049717,0.6184392440319061,0.6357231771945954,-0.974871211051941,-1.363167589902878,-1.912497409582138,-19.742625770568846,-32.09437614440918,22.376250762939453,214.86574596772488,none,false,false,false,,,,,,,,,0.7298599303801461,9.707266779229192,1.7854589929269387,-28.209751205444334,-48.31050201416016,75.01987762451172,0.003318873398444232,-0.010157475891687414,0.011287133154623648,0.7386180297285319,9.728839945793151,1.7912835821695625
21.0,-0.19100099005371185,0.05386748486289791,-0.21488953757273288,0.7188148834541732,9.4209877836938,2.5142424609146867,-0.00918527285448543,-0.05931967759209842,-0.018426362005532673,0.3803855990077935,0.21984785210852528,0.6315297542833814,0.6382312044209125,-1.0805151082721411,-1.3409646153450012,-1.9636222042289435,-26.368126182556153,-30.998251342773436,16.618500652313234,208.2238145988313,,,,,,,,,,,,,0.5275882615470419,9.474382830601112,2.2988780494414125,-34.836376419067385,-47.21625160217285,69.26212768554687,-0.00773539596080485,-0.06356992477108495,-0.020036881600534268,0.5275882615470419,9.474382830601112,2.2988780494414125
22.0,-0.03154823820263442,-0.4755137061866203,-0.20965333151548068,0.9701050165856239,9.424946312857147,2.4023744505230744,-0.03138100356320102,0.09395968120581671,0.03018664238590966,0.37513827953008144,0.2061879502074553,0.6284803157985801,0.6489348942690557,-1.0180975440705176,-1.328317386088985,-1.8721853919548563,-31.727626266479493,-29.446501045227052,17.2713756942749,210.21047897473335,none,false,false,false,,,,,,,,,0.9382856853195641,8.948964770477597,2.1922976338110938,-40.195501480102536,-45.66187652587891,69.91425323486328,-0.029945343413262392,0.08970661729793339,0.02857169095773761,0.9382856853195641,8.948964770477597,2.1922976338110938
23.0,-0.0016607326815033902,-0.1596654446998445,-0.3468802781581952,0.9163457332271161,9.491045999054862,2.1785145041966203,-0.004575618648772487,-0.01003205351125781,0.021274381782859564,0.35956430435180664,0.20040481249884803,0.6305723579803316,0.6574640327160901,-0.9896366324755225,-1.3403083569932692,-1.8097885197932178,-30.44137622833252,-32.96550144195557,19.471875801086426,210.60473722695082,,,,,,,,,,,,,0.9074794536036458,9.316123971752091,1.8343265628277816,-38.907376251220704,-49.1823770904541,72.11700332641601,-0.0014684994611889124,-0.02027712350245565,0.01874124967958778,0.9074794536036458,9.316123971752091,1.8343265628277816
24.0,0.14239678288450336,0.24254525610531616,-0.2019582630623833,0.9044243457293747,9.403340415199205,2.5116912952744133,0.06925551413430595,-0.05783088296633579,-0.01118602953376431,0.36696179078357055,0.18412525804326085,0.6346654266414076,0.6540497423398612,-1.0507876902523607,-1.3087034851017565,-1.8589046249295225,-27.739126091003417,-34.24350120544434,17.320500679016114,206.7875551624137,none,false,false,false,,,,,,,,,1.0464163861919822,9.645385057619302,2.3092397154115214,-36.2081266784668,-50.46037719726562,69.9630027770996,0.07069252369304498,-0.062086642350015396,-0.012798283833499048,1.0464163861919822,9.645385057619302,2.3092397154115214
25.0,0.026770098386332392,-0.03862910974770784,-0.020751173458993435,0.8165259110455466,9.38053319949915,2.6343979658466754,0.019471905341759178,-0.051005692267329386,0.020245172004999205,0.3621802905201912,0.1754699882864952,0.6372599148750305,0.6565737843513488,-1.0716497480869294,-1.3029841792583465,-1.8592842435836792,-27.004126205444337,-34.40775161743164,15.228375759124756,203.78237322792214,,,,,,,,,,,,,0.8490282564175011,9.362436049055345,2.6293412095839432,-35.47237663269043,-50.62612724304199,67.87162811279296,0.023839413254920925,-0.054471044577848245,0.022004210394902194,0.8438385386765003,9.339619903564452,2.618944620192051
26.0,0.11979772964259609,-0.3235742392577231,-0.17513785019516945,0.8093548679351806,9.485888767242432,2.2445612287521364,-0.014907178307634474,0.02673762407393591,-0.03687314371956457,0.3731135910749435,0.21004102900624275,0.6302012234926224,0.6472310590744018,-1.037784606218338,-1.336932247877121,-1.8942439091205596,-24.387375984191895,-32.616376419067386,17.529000682830812,208.1923839473726,none,false,false,false,,,,,,,,,0.9288585488125682,9.161815962791444,2.0689621075848117,-32.85562648773193,-48.832876968383786,70.17337799072266,-0.013457302022540923,0.02248873806438676,-0.03849183183421593,0.9288585488125682,9.161815962791444,2.0689621075848117
27.0,-0.08321045125451158,-0.3215239411608006,-0.3265790212625528,0.8840669861026839,9.495497236064836,2.1819090784764756,-9.271032868488E-4,8.440592399991975E-4,-0.008361632742061474,0.3676425975327398,0.1964860393428335,0.6293858418277666,0.6552087267239889,-1.0078584458313735,-1.3240292831963183,-1.8353786597064896,-26.681251182556153,-31.739626312255858,15.210000648498536,205.54527397819774,,,,,,,,,,,,,0.8005103325898139,9.173488663692101,1.8549044935817958,-35.15100158691406,-47.956876831054686,67.85437850952148,5.064347602131933E-4,-0.0034116338246898484,-0.009977598213544577,0.8005103325898139,9.173488663692101,1.8549044935817958
28.0,0.12254470254820173,0.17233931051917595,-0.1257727526054524,0.6970088686978463,9.451831742088393,2.399970837158732,-0.021277451440326722,-0.01411936187422743,0.01424338202010475,0.37827160954475403,0.19414704844355582,0.6363283485174179,0.6431804412603378,-1.1071768575906753,-1.3084289598464967,-1.9484804248809815,-27.459751167297362,-33.28275161743164,13.922250556945801,202.66887818395296,none,false,false,false,,,,,,,,,0.8192079589508547,9.623661872183922,2.2736926870697207,-35.92762641906738,-49.501502227783206,66.56775329589844,-0.021643316852721837,-0.024651981078752196,0.009686262508171915,0.8192079589508547,9.623661872183922,2.2736926870697207
29.0,-0.011375530358111742,0.017681769314495957,-0.10030618711721663,0.7110381960302737,9.405156462800269,2.5747472351672602,0.003775124202971116,-0.01952500076558773,-0.025399381963370164,0.3823845480002609,0.19309623612492693,0.6367433468500773,0.6406644828179303,-1.1255072781852646,-1.3012212725246655,-1.9720204145300622,-29.563876190185546,-34.28775177001953,14.54512559890747,202.90036817640907,,,,,,,,,,,,,0.6994206165602687,9.422276917625876,2.473964815046273,-38.02950180053711,-50.503877334594726,67.18950332641602,0.005203217332537221,-0.023773882999130996,-0.027013984481149382,0.6994206165602687,9.422276917625876,2.473964815046273
30.0,-0.09489305931892172,-0.25915116718148484,-0.06650765809942694,0.8537556365424511,9.367797860912248,2.639302242035959,-0.032990563879994786,0.048023896684468374,0.046260661304033564,0.3776034429377201,0.19050342239001217,0.6389441320709154,0.6418290909598855,-1.1444715243928574,-1.3036369961850784,-1.9793751929320542,-26.880001029968263,-33.95175155639649,15.100500621795653,203.99673484757204,none,false,false,false,,,,,,,,,0.7586250384828971,9.108088633593391,2.5723354075030955,-35.34937652587891,-50.16787742614746,67.74600326538086,-0.03156029380510981,0.0437694854404339,0.04464166687673652,0.7696411279940719,9.126148913166311,2.583408529879433
31.0,-0.025732031520456077,-0.29924566856585444,-0.41831402411684393,1.090209854245186,9.346107530593873,2.6736780428886413,-0.005116089191841017,0.01893960332756143,-0.006020048951342849,0.38285692751407624,0.17655037134885787,0.6314711219072342,0.6504549998044967,-1.065312117934227,-1.2763457024097442,-1.8882204484939575,-30.899626235961914,-30.763501052856444,13.663875541687013,203.866929076376,,,,,,,,,,,,,1.071941630785713,9.026443481445312,2.265338717784622,-39.36937660217285,-46.980751495361325,66.30825248718261,-0.0036784634132417714,0.014692079275846481,-0.007633290387284343,1.0640205467864872,9.046357913017273,2.2549426025897263
32.0,0.08958235149746578,0.20545013657971925,-0.15095109975093282,0.8374200165271759,9.433531246933283,2.456782737198998,0.013756806902255458,-0.0040120046060200375,0.0537570538368113,0.367999550466444,0.18871807920582154,0.6359418449448604,0.6511870967406853,-1.0737830417997696,-1.3132621529055577,-1.8902438025848538,-30.72487621307373,-32.186251373291014,18.937875709533692,210.55101765838157,none,false,false,false,,,,,,,,,0.9266015161194053,9.638473978229598,2.305375108531877,-39.192001571655275,-48.403126907348636,71.5822525024414,0.015194430813599046,-0.008264974889225594,0.05215197970334551,0.9266015161194053,9.638473978229598,2.305375108531877
33.0,0.13475186032782502,0.016295716904177523,0.020793484998774706,0.7376419013679618,9.341587878689907,2.7526963429875893,0.09130808695529898,-0.027295096969122395,-0.01443884746335885,0.3763363200426102,0.18001685932278633,0.639886776804924,0.6445851862430573,-1.1370420908927918,-1.2910094475746154,-1.9544430780410766,-27.215626068115235,-35.38425178527832,19.752750701904297,209.12124760035607,,,,,,,,,,,,,0.8720896425518659,9.35740590803694,2.7729847870840887,-35.683501396179196,-51.600377502441404,72.3956282043457,0.09274509647751555,-0.031546812463442195,-0.016061886460246408,0.8720896425518659,9.35740590803694,2.7729847870840887
34.0,0.029617952230824706,-0.4622086176246989,-0.21695911867872758,0.7694777931068458,9.360885853860893,2.72909853738897,-0.007502599102952103,-0.011875369987164689,-0.019535891564175633,0.38130894804945087,0.19119626637732628,0.6410259120535142,0.637576961871421,-1.1678374061490049,-1.300163207667889,-2.0097640729186557,-18.126750774383545,-34.044376335144044,17.96925073623657,207.68360787756123,none,false,false,false,,,,,,,,,0.7987750400321139,8.898131272372078,2.5116809935619435,-26.59275100708008,-50.2605020904541,70.61212783813477,-0.006069059220908007,-0.01613106435662744,-0.021143687907421944,0.7987750400321139,8.898131272372078,2.5116809935619435
35.0,-0.12778162402054755,-0.07928570243760501,-0.33681179388739757,0.8503909495472908,9.398431043624878,2.559515609741211,-0.07455330909065463,-0.006577082124410891,-0.006715931537031543,0.4027333292365074,0.20620685935020447,0.6290324246883392,0.6310167813301086,-1.1010998421907425,-1.2905496490001678,-2.0013955628871916,-19.92900074005127,-29.832376022338867,15.740625648498535,207.7729316105455,,,,,,,,,,,,,0.722462413039538,9.319111356640807,2.2211065407436674,-28.39800121307373,-46.04812683105469,68.38575256347656,-0.06989628714647624,-0.015499380924323998,-0.011638490303354983,0.722462413039538,9.319111356640807,2.2211065407436674
36.0,0.06803349411981825,0.30118950257206906,-0.21224239747971296,0.5278320104105048,9.44127356651986,2.4716479601246295,0.017582124965265393,-0.011072874055244028,0.011688875188119709,0.36135802912239984,0.18676391140659257,0.6466523243649172,0.6446950116960128,-1.175324277122422,-1.3222062151030738,-1.978087059342035,-23.754375877380372,-29.96962631225586,15.98475076675415,208.01225078849552,none,false,false,false,,,,,,,,,0.595626268314548,9.741996991752398,2.2589481249451637,-32.223751373291016,-46.18725143432617,68.62725280761718,0.019021751135587694,-0.015321624604985118,0.010084248795174063,0.595626268314548,9.741996991752398,2.2589481249451637
37.0,-0.08782640038174577,-0.08051186755299568,0.07017014957964421,0.5589760185230989,9.33134310722351,2.847525243759155,-0.044612624156888166,-0.0033204215302104407,0.0359269805243331,0.38634020149707793,0.18776964992284775,0.6498285818099976,0.6263250786066056,-1.262969115972519,-1.2864578306674956,-2.1084253764152527,-25.465501136779785,-32.704501724243165,14.168250484466553,203.3378255201004,,,,,,,,,,,,,0.46520794478088323,9.233768722798565,2.9157357729307494,-33.935251998901364,-48.92137702941895,66.81112846374512,-0.043180445983710854,-0.00757066762572763,0.03431782196506415,0.47089052431285383,9.250345907211305,2.917233130335808
38.0,0.03287293251124349,-0.480139962517389,-0.3122091188492014,0.5369674714063021,9.388685824824314,2.6750008358674893,5.336618511983664E-4,0.13616584211421928,0.05583452962633997,0.3969216069170073,0.20838005972259185,0.6464928499623841,0.6167147802371605,-1.2792379002945096,-1.2991673560703503,-2.1729306637072097,-24.64800106048584,-33.56362678527832,15.913125610351562,205.35827553946766,none,false,false,false,,,,,,,,,0.5662735549586952,8.8903930607964,2.3661707004203514,-33.115501441955566,-49.779752502441404,68.55525329589844,0.0019699268614744195,0.131912871116385,0.05421175710893798,0.5662735549586952,8.8903930607964,2.3661707004203514
39.0,-0.02944413694267226,0.09109437441693084,-0.20189223040153484,0.5505652083913879,9.389798759233834,2.6825916318610163,0.006040563053615829,-0.01221862694650304,0.011500122473009076,0.3912552258755901,0.20939013804539597,0.6453203181229016,0.6213135872737016,-1.2557206803029126,-1.3099645293585145,-2.1412698986506697,-25.60687614440918,-32.9501261138916,16.89975070953369,207.11872959090667,,,,,,,,,,,,,0.5208965621169398,9.480388103145184,2.4801951799504827,-34.07700168609619,-49.168127365112305,69.54412796020507,0.007478921085267383,-0.016464952000544642,0.00988651936252912,0.5208965621169398,9.480388103145184,2.4801951799504827
40.0,0.07183874624224343,0.12216892210291881,-0.14399401084109045,0.5786939517174866,9.396886834911271,2.6238573251986037,0.06542821640683578,-0.05430297092027446,-0.012596905789347274,0.3860773920428519,0.21138186197654873,0.6416569562519298,0.6274054406904707,-1.2101069244683957,-1.3213036913497775,-2.0900375772924984,-25.662001152038574,-33.16387657165527,18.687000789642333,209.35121405414404,none,false,false,false,,,,,,,,,0.6503559099544551,9.51853720814574,2.4793898323002983,-34.1313765335083,-49.381127243041995,71.33287841796874,0.06686175676837268,-0.05855049496276839,-0.014215593576652578,0.6503559099544551,9.51853720814574,2.4793898323002983
41.0,0.1821140795276733,-0.42889124324545264,0.07640648480504751,0.5797017578780651,9.42896894454956,2.5151391220092774,0.014436152087999326,-0.030382108267433212,-0.022887009584034484,0.3886363691091537,0.2082744699716568,0.6422230869531631,0.6264022660255432,-1.2190913236141205,-1.3131525468826295,-2.098604910373688,-25.377376098632812,-33.5021265411377,18.372000694274902,208.70756735770573,,,,,,,,,,,,,0.751494088814142,8.989726146849074,2.5800714064205046,-33.84412670135498,-49.718252410888674,71.01600280761718,0.019716954596414423,-0.039203836347465174,-0.02463564355534935,0.7615485297003761,8.999553408622742,2.5910221203416586
42.0,-0.17542490106550793,-0.23749571465247987,-0.3269449605186488,0.5361551387491179,9.47475330502379,2.3845923052114597,-0.05940680597715153,0.020054579509588163,-6.480192774814545E-4,0.38723115652215245,0.22064389098508685,0.6422592243727516,0.623018645772747,-1.2349400286581003,-1.3322124387703689,-2.1306191601005255,-22.551000938415527,-30.876001167297364,19.980375747680664,212.88904063803912,none,false,false,false,,,,,,,,,0.36061913358485875,9.236853412553376,2.057214795867456,-31.017751197814942,-47.09400177001953,72.6270034790039,-0.05797735179341076,0.01580705454960318,-0.0022653461581483335,0.36061913358485875,9.236853412553376,2.057214795867456
43.0,0.08336765515516595,0.1881833632504291,-0.19623923517929592,0.4416650384134327,9.506109464286578,2.2181127283832813,-0.03616519615181959,0.00407647031961995,-0.010312499724985921,0.3875564156782509,0.2261909687578088,0.638391922015955,0.6247747481459438,-1.1937654407897798,-1.3398571911424693,-2.0982925679424023,-23.149125900268555,-30.406876220703126,19.88512580871582,213.0916254406655,,,,,,,,,,,,,0.5249792322202926,9.693799457927742,2.0214297926366918,-31.615876350402832,-46.62300163269043,72.5272525024414,-0.034725489514861624,-1.7120083793997765E-4,-0.011936887395659498,0.5249792322202926,9.693799457927742,2.0214297926366918
44.0,-0.1305008801345778,0.12316895409090685,-0.16892192891734367,0.52756949499397,9.486731170427682,2.29595418967823,-0.03716212494764477,0.01052837430499494,0.02287037645932287,0.3861648915427746,0.2346519489984701,0.6383597396387912,0.6223276552587452,-1.2127371766779682,-1.3531088663799928,-2.1278350459467066,-22.525125846862792,-33.57525135040283,20.1787508392334,210.96262895304034,none,false,false,false,,,,,,,,,0.39702031407320854,9.60934056385909,2.1265797978359284,-30.993751182556153,-49.792502059936524,72.8231283569336,-0.035718374638818204,0.006272750101052224,0.021250624638050795,0.39702031407320854,9.60934056385909,2.1265797978359284
45.0,-0.10945501729919768,-0.38586268099117105,-0.11903564453051232,0.5713353872594267,9.52060356706676,2.149537762792984,-0.034633823958061194,-0.05079681334067501,0.012035294161999928,0.37072370252986947,0.23219179221899203,0.6427736028586284,0.6283303758885601,-1.2237272486828341,-1.3717082809693744,-2.1095508561275973,-23.201625747680666,-33.45375137329101,19.518000717163087,210.256639622887,,,,,,,,,,,,,0.4617326958750439,9.134247444643833,2.030088219524241,-31.6706262588501,-49.670252075195314,72.16125289916992,-0.03319142163986815,-0.05504987713899098,0.010418995593984922,0.4617326958750439,9.134247444643833,2.030088219524241
46.0,-0.08497385346495054,-0.3101532310247421,-0.4681495889478053,0.5643620007835767,9.538936932881674,2.0566574861021603,-0.0181214125310578,0.06779022172720421,0.019353465412254675,0.3548739908957014,0.21957956838841533,0.6493095714671939,0.6351551612218221,-1.2535221600065045,-1.3756846738796609,-2.0945909116782393,-24.374251136779787,-32.698876266479495,18.67650079727173,209.70675205960876,none,false,false,false,,,,,,,,,0.47927502102638575,9.228248979531083,1.5881147816978103,-32.84362636566162,-48.91462707519531,71.32087875366211,-0.016672896073743847,0.06353180617149366,0.017730692203276523,0.47927502102638575,9.228248979531083,1.5881147816978103
47.0,-0.005227730863054495,0.13125677735056027,-0.2333686100964499,0.5846414239062826,9.548788920487508,1.9970857601354617,0.047155758822519406,0.034321078377794106,0.036247426799188055,0.3658994144142264,0.2280929801192614,0.6413524381004938,0.633916709682729,-1.1669106749024722,-1.3727394720115285,-2.0386781373826586,-24.240001068115234,-29.906626205444336,20.29650089263916,214.11821775850044,,,,,,,,,,,,,0.5792020053999258,9.679546521441772,1.7633347355825182,-32.70487674713135,-46.12462646484375,72.94162811279297,0.048596813909563365,0.0300761029288611,0.034632474909920025,0.5792020053999258,9.679546521441772,1.7633347355825182
48.0,0.0869503224025453,0.15666345448470584,-0.18718971417961167,0.5249452941329675,9.50884292639938,2.211575074523103,0.03967279359680034,-0.07195159060168355,-0.022124019917100668,0.37693744021303516,0.23072322837862314,0.6438934218649771,0.62375173089551,-1.2632934322544174,-1.361018951032676,-2.1572206464468264,-23.6610009765625,-28.214625968933106,19.264875736236572,214.17581128009962,none,false,false,false,,,,,,,,,0.6117309150194713,9.664973992927402,2.0239795028487695,-32.13037654876709,-44.43150184631347,71.90887786865234,0.041117891281222306,-0.07620600472186126,-0.02373357839407582,0.6117309150194713,9.664973992927402,2.0239795028487695
49.0,0.02299681317526847,-0.2877108372163539,0.040518609879940166,0.6491315363376748,9.479758421579996,2.259585405097288,0.06133725214749575,-0.07889913289005508,-0.0490289608542208,0.37905484379506577,0.2244222446107397,0.6392897244761971,0.6293822959357617,-1.1950179618947647,-1.3501761427112655,-2.0829064962910673,-28.264501304626464,-26.88900115966797,19.30237585067749,215.64051504017564,,,,,,,,,,,,,0.6718853232952967,9.191543083564907,2.2996854074299335,-36.73275146484375,-43.10512664794922,71.94637786865235,0.06277487604500781,-0.08314937895329871,-0.050638118108716046,0.6718853232952967,9.191543083564907,2.2996854074299335
50.0,-0.03811499813498813,-0.4352325485646725,-0.2924798513576388,0.5127362694777549,9.510514726638794,2.2335455203056336,-0.058694801048956594,0.006433910385954498,0.012198019749715482,0.3723913419246674,0.21445725977420807,0.6454203754663468,0.6308932852745056,-1.2258192932605743,-1.3453328108787537,-2.087717934846878,-29.663251037597657,-31.027501106262207,19.09837568283081,211.5255125200669,none,false,false,false,,,,,,,,,0.4744470238639042,9.074763450622559,1.9406160943210125,-38.130751342773436,-47.24437629699707,71.74350280761719,-0.0572530939335944,0.002178218985658766,0.010583415701247679,0.4744470238639042,9.074763450622559,1.9406160943210125
51.0,-0.03914547989181444,0.14288700715291733,-0.4674721370204626,0.46078914024081885,9.474569311328963,2.3509937688416125,-0.027224999995404245,0.02296250093138159,-3.743808495231194E-4,0.3719176781528136,0.22176385291066825,0.6473243143044266,0.6264827952665442,-1.2629156054234971,-1.3535532857857497,-2.135145987950119,-23.749875831604005,-31.045126190185545,20.79075077056885,213.74031872680834,,,,,,,,,,,,,0.4216294262886924,9.6169666075239,1.883108920253375,-32.21812614440918,-47.26162696838379,73.43475341796875,-0.025787376259259955,0.01870680708290622,-0.001983539335023944,0.4216294262886924,9.6169666075239,1.883108920253375
52.0,-0.07854657701336511,0.14129891744492076,-0.19534807159832798,0.4697061815112829,9.506823568344116,2.21002876996994,-0.039458456572473925,0.014606004238457364,-4.340687346662961E-4,0.36969762086868285,0.22336147829890252,0.6468051367998123,0.6277919518947601,-1.25499462723732,-1.3600220775604248,-2.1259335327148436,-21.88012561798096,-29.71875118255615,19.983000831604002,213.95227890166288,none,false,false,false,,,,,,,,,0.3884569476035857,9.648994006732902,2.009068906012148,-30.34800121307373,-45.93562660217285,72.6255029296875,-0.03444851488612666,0.00731745045078863,-0.0031733907215149688,0.39627151714637876,9.670363941192626,2.017129594385624
53.0,-0.006525999555985133,-0.12276838953588523,0.04407744653815148,0.44424900049104027,9.554456065682803,2.0091098523607442,-0.015529332797753044,-0.04049579274960526,-0.0031679457302509558,0.36462778262063567,0.22267125473887311,0.6464128172865101,0.6316893024771821,-1.233727049593832,-1.3669012890142553,-2.0951726226245655,-22.196625862121582,-27.446626091003417,19.805250663757324,215.772683743698,,,,,,,,,,,,,0.4375985497608781,9.43116660679088,2.0527030385884584,-30.665626220703125,-43.66350143432617,72.45075271606446,-0.01408762425774395,-0.044752846886911016,-0.004781187774779478,0.4375985497608781,9.43116660679088,2.0527030385884584
54.0,0.05635620756074786,-0.4916117323189974,-0.25247674103826284,0.6151472578197718,9.534259796142578,2.072583076953888,-0.002858910709619522,0.0746597770029808,0.04619591514404753,0.36674092054367063,0.2164798390865326,0.6456228280067444,0.6334044760465622,-1.2195126593112946,-1.356136486530304,-2.075134987831116,-22.268625831604005,-26.960251083374022,20.82187587738037,217.64817502844977,none,false,false,false,,,,,,,,,0.6713475325610488,9.042124953269958,1.81964109019842,-30.737251205444338,-43.17750144958496,73.46550277709962,-0.0014103955386372486,0.07040408380919753,0.04458539601470722,0.6713475325610488,9.042124953269958,1.81964109019842
55.0,0.024590565500283004,-9.082082456143776E-4,-0.2767243434370744,0.7189147726143941,9.50097919690727,2.1803294632694508,0.023711875127628446,0.02760449897032231,0.02218562486115843,0.3637220614617414,0.2074133660828713,0.6431444847937857,0.6404444829072102,-1.1578195295711555,-1.3472582526726298,-1.9951009337264713,-21.15112579345703,-26.062876167297365,20.746500778198243,218.51867123950356,,,,,,,,,,,,,0.7328206284574288,9.47174165763107,1.8945853864481927,-29.61900115966797,-42.27937644958496,73.39237823486329,0.025145999835804105,0.02334887516219169,0.020565875335596503,0.7432738030513767,9.49959107672814,1.9032342507144306
56.0,0.060393091617152096,0.21289746798574924,-0.10800126254558563,0.7152378787100315,9.489568157196045,2.231846774816513,0.03158551922971659,-0.0912115091485626,-0.014659405160363358,0.37128916174173354,0.21208317071199417,0.6423413807153702,0.6354162120819091,-1.179417051076889,-1.3436920583248138,-2.0359582221508026,-21.58837574005127,-28.946626281738283,18.57337579727173,212.61771539056303,none,false,false,false,,,,,,,,,0.78005944242203,9.691715773969594,2.1370723825132494,-30.056251220703125,-45.16312622070313,71.21625335693359,0.03187662524171173,-0.09905637430027127,-0.013941124575212597,0.7753200361691416,9.701952424049377,2.1234331046789885
57.0,0.046208145389077714,-0.09198758203317137,0.00457296168942954,0.7405406714362257,9.528229189854041,2.0625340845070634,0.0014335395224244877,-0.06682636077045509,0.01749245088436816,0.3585502747811523,0.2139384122748001,0.6442871602142558,0.6402776445828232,-1.1786798221223496,-1.3642737327837478,-2.017138878504435,-23.28787609100342,-28.954126167297364,17.43300065994263,210.98172557137096,,,,,,,,,,,,,0.7864206315283024,9.43575630935968,2.066695674998211,-31.754626235961915,-45.17212631225586,70.07737762451171,0.002876609130439782,-0.07107388567972449,0.01587103892781652,0.7864206315283024,9.43575630935968,2.066695674998211
58.0,0.0413748723187364,-0.45188645957646395,-0.11128076876393787,0.7845555762253186,9.523309122217764,2.0691247470308056,0.04205343179751699,0.03014485262261302,-0.053231372735371776,0.36479466504389696,0.21037640621756562,0.6417285434090265,0.6403071455436178,-1.1634283974619195,-1.3494862860972339,-2.0068207141196375,-26.720626106262205,-26.273251190185547,16.854750556945802,212.72093903838532,none,false,false,false,,,,,,,,,0.8256267706614615,9.070959298917563,1.9574198971806775,-35.19075138092041,-42.49012626647949,69.50025283813477,0.04601212881855888,0.023063242490781417,-0.05565074171944715,0.8256267706614615,9.070959298917563,1.9574198971806775
59.0,-0.17152448059698822,-0.2724364739568794,-0.2707311696208575,0.8567744958050111,9.497417440601424,2.1742050939915227,-0.03818007425801589,0.003187004089503005,-0.014481063526455718,0.373521999985564,0.20466058759712705,0.6394688609768363,0.6395136719825221,-1.143833218836317,-1.3296648392490311,-1.9929275454259385,-27.432751121520997,-26.961376190185547,19.648875694274903,215.97140662532493,,,,,,,,,,,,,0.6849338526965356,9.22449164764554,1.9030089020436884,-35.9017512512207,-43.178251342773436,72.2898779296875,-0.036742450614081754,-0.0010673265470800422,-0.016094306004371974,0.6849338526965356,9.22449164764554,1.9030089020436884
60.0,0.09173419816419483,0.25034877479076384,-0.20732559967320413,0.6727155012637377,9.520114593505859,2.1131234753131865,-0.028454331764121456,0.026958168996036938,0.02776819341216642,0.38291462749242783,0.22558088049292566,0.6383734726905823,0.6278230911493301,-1.1866281986236573,-1.3460130655765534,-2.0825446343421934,-25.755001068115234,-30.874876136779786,19.00012565612793,211.5688739806765,none,false,false,false,,,,,,,,,0.7531322166876923,9.741254442989236,1.896503556049475,-34.22287658691406,-47.09137664794922,71.64525360107422,-0.027016707520821307,0.022705197255910917,0.026156312062192967,0.7642530390433967,9.769917483329772,1.905429091611877
61.0,-0.04567949129633751,0.02878775235776808,-0.14081356842436044,0.7525719813272065,9.481113302941417,2.248811297556933,-0.0326324259991398,-0.0018460388424446678,-0.003692079247851478,0.38148437265087576,0.21812009811401367,0.6378513533695072,0.6318390866120657,-1.155555608810163,-1.3375540761386646,-2.037915331475875,-26.30362606048584,-31.145626144409178,20.039625778198243,212.71686205280326,,,,,,,,,,,,,0.7065500345482838,9.509382794885074,2.1075500996062058,-34.77300163269043,-47.36287651062012,72.68437805175782,-0.03118799545221252,-0.006092202190383531,-0.005316213377299581,0.7065500345482838,9.509382794885074,2.1075500996062058
62.0,-0.06921224264428019,-0.23158741138875485,-0.07927820663899184,0.723692416548729,9.525037117004395,2.053504716157913,-0.047795543825198517,-0.04983081711032013,-0.004481683665019746,0.3612517908215523,0.21616102993488312,0.6448979902267457,0.6373730093240738,-1.1931746578216553,-1.3635744035243988,-2.0393473851680755,-24.857626037597655,-29.321626014709473,19.758000602722166,213.98312815833967,none,false,false,false,,,,,,,,,0.6542730301374103,9.292923393249511,1.9737540952395647,-33.326251373291015,-45.53887657165527,72.4023779296875,-0.046359280755946246,-0.054085149296033794,-0.0060962871786686456,0.6542730301374103,9.292923393249511,1.9737540952395647
63.0,-0.04134511782881329,-0.463079810617309,-0.2637196254537569,0.7790112045465731,9.520413754033108,2.070037105504204,0.014750618169471473,0.08909183138483527,0.058381682123509374,0.35647378394416734,0.20468442039746865,0.6480905209101883,0.640420924799115,-1.2020807231173796,-1.3536831409323449,-2.0235209172847224,-25.179376068115236,-26.09662612915039,19.657875900268554,216.9414530776811,,,,,,,,,,,,,0.7374353309381095,9.056813656115065,1.8059412615885044,-33.64612648010254,-42.31387664794922,72.30037796020508,0.016193689160639107,0.08483613824176758,0.05677252440796335,0.7374353309381095,9.056813656115065,1.8059412615885044
64.0,0.052479998393002714,0.0074409724093309725,-0.2580004717121915,0.8100759682088795,9.508015254936597,2.1432335211498903,0.026294853515448233,0.0026879907110888583,6.44363764235202E-4,0.364780989318791,0.20760700032852664,0.6434887146005536,0.6396923106495697,-1.1654988421071875,-1.3465421825352282,-2.0046440457353496,-25.443376083374023,-29.372626190185546,19.720500679016112,213.98269616838607,none,false,false,false,,,,,,,,,0.8622371721770706,9.514911807409607,1.8847708766265672,-33.91200168609619,-45.58950172424316,72.36412841796874,0.027741299613433724,-0.0015623786066677056,-9.598043272454365E-4,0.8622371721770706,9.514911807409607,1.8847708766265672
65.0,0.07437903810219437,0.15973478620050147,-0.1340090068349359,0.9453433643953473,9.460327054940018,2.265550463807349,0.033023143136449676,-0.050772895017583475,-0.0017371292936034723,0.36204400132684145,0.19244781384865442,0.6407723970272962,0.6483185858118767,-1.1168764572517544,-1.3288641279818965,-1.929245648430843,-27.896251068115234,-32.4187512588501,17.49337568283081,208.27925967701242,,,,,,,,,,,,,1.0193559273018264,9.619606331282972,2.1311324524017525,-36.36300128936767,-48.63637710571289,70.13850326538086,0.034468936000830765,-0.05502314284204109,-0.003344925438597946,1.0193559273018264,9.619606331282972,2.1311324524017525
66.0,0.013899300046557305,0.014748540871283588,-0.05618874488544522,0.9429176591410495,9.501765893237426,2.0869688539221736,0.023509802707635304,-0.02745551382666271,0.012213235387724697,0.36450427323579787,0.21590203195810317,0.6381319814920425,0.6423086059093476,-1.1083115977048874,-1.3589323246479035,-1.959427901506424,-25.793626174926757,-34.629001693725584,20.239500885009765,210.26036342615996,none,false,false,false,,,,,,,,,0.9539323972547245,9.517625434725892,2.024258920274602,-34.26225158691406,-50.84700225830078,72.8861277770996,0.023993069997592136,-0.03221584059353365,0.00910631179035005,0.9539323972547245,9.517625434725892,2.024258920274602
67.0,0.021540101813152433,-0.4499347110465169,-0.19892180397640913,0.7199244201183319,9.541809425354003,2.034902126789093,0.0012388480279375525,-0.04300244972475019,-0.01607806320010009,0.3649481415748596,0.22143530026078223,0.6410598957538605,0.6369726711511612,-1.1728736221790315,-1.3656756567955017,-2.033136827945709,-24.253125953674317,-35.27812629699707,19.815376033782957,209.2462874066205,,,,,,,,,,,,,0.7326178566580361,9.066238006742873,1.8288639416955044,-32.71987636566162,-51.49575233459473,72.46087829589844,0.005490471359969365,-0.05021608844491662,-0.017757921949914185,0.7412340353056789,9.091380381584168,1.8355320810247213
68.0,-0.0628878697387728,-0.12523511636490917,-0.44899829456984414,0.6037309604632383,9.548056668574267,2.025732143090503,-0.06239504919912998,0.019602598447241996,-0.0175006189153041,0.36355439120647953,0.21264328325496,0.6458514794415119,0.6361266018128863,-1.2067248529078913,-1.3545561631520588,-2.0514735345746957,-23.675625915527345,-33.65550136566162,17.715375633239745,207.8012618901722,none,false,false,false,,,,,,,,,0.5474034913695685,9.448414302108311,1.5719198802264758,-32.14350131988525,-49.872001953125,70.35862869262695,-0.05739662538282573,0.012765500508248807,-0.019988375571556388,0.5394970844773685,9.423507793276917,1.5712044904574605
69.0,0.09991671139374375,0.20206101913005114,-0.14522133356309497,0.6916840532422066,9.537133016586303,2.063110305070877,-0.0041495053936718125,0.00938675823704441,0.004036509971328006,0.3762476807832718,0.2259213899075985,0.6402917939424515,0.629896696805954,-1.1980076658725738,-1.356127095222473,-2.0833759462833403,-21.4901256942749,-31.906126174926758,19.717125816345217,211.70142097352863,,,,,,,,,,,,,0.7789010303279403,9.726909373066214,1.905300091638571,-29.958001098632813,-48.12337692260742,72.36150283813477,-0.002706435799488042,0.00513923264541986,0.0024123754638182646,0.7913400409650058,9.738697957992553,1.9174230923689901
70.0,-0.06838659784190503,0.02059110699623239,-0.04415840364298692,0.8010222734791217,9.52029002539002,2.10741926301824,-0.015802970192957632,0.008632549435121588,0.002084282365175757,0.3781892949401742,0.2214649105721181,0.6392569577339853,0.6312301766754377,-1.1770761420231055,-1.3468907233512049,-2.0590211200241995,-22.217625770568848,-32.446876525878906,18.72150077819824,209.97897455091325,none,false,false,false,,,,,,,,,0.7302088638968474,9.541848982081694,2.0571471481200527,-30.68250118255615,-48.664877014160155,71.36475326538086,-0.011587125137448312,4.8674969002604485E-4,-0.0010243744123727082,0.738864397288918,9.56199550156546,2.0649906838736913
71.0,-0.0720206706225872,-0.49931762150488795,-0.11053264513611794,0.7646896485984326,9.485340805053712,2.2436919009685514,0.0019910539290411214,0.09280710830809731,0.0512551466623942,0.3882949000597,0.2247895133495331,0.64020352602005,0.6228058856725692,-1.2246901905536651,-1.3361684107780456,-2.1284624350070955,-23.66212600708008,-33.675376434326175,16.374375686645507,205.9207557753251,,,,,,,,,,,,,0.6859782524314699,8.970465282402417,2.1294669337791974,-32.131501541137695,-49.89187736511231,69.01762741088868,0.006665346406326436,0.08608180670860675,0.048209405531830125,0.6859782524314699,8.970465282402417,2.1294669337791974
72.0,0.026014041534497167,-0.24639797327565213,-0.3091515134654793,0.7614155990235946,9.481965569888844,2.255534852252287,-0.010537129361182451,0.0027254951592202824,0.032588861131173846,0.3873666890111624,0.22473611814134262,0.6408920136152529,0.623049746541416,-1.2273749674067778,-1.3373519778251648,-2.129336521906011,-26.85487609863281,-34.5990013885498,16.378500671386718,205.3208058516563,none,false,false,false,,,,,,,,,0.7871868028944614,9.23507396847594,1.9459706799437602,-35.32087669372559,-50.81550254821777,69.02175323486328,-0.009095420830394371,-0.001526113830064193,0.030970172343388346,0.7871868028944614,9.23507396847594,1.9459706799437602
73.0,0.016843735053674272,0.07222630172082693,-0.3753084012394826,0.8069768412278431,9.468334358517486,2.308142857976479,-0.02720882342763099,0.004509190152234891,0.025677450366464315,0.37821513797977185,0.2221752766630437,0.6417325286581965,0.6284610670391876,-1.222331725724853,-1.3467616185103313,-2.105379482307056,-27.9795011138916,-33.15975158691406,18.012375793457032,208.4315224254743,,,,,,,,,,,,,0.823483699729832,9.540043523996184,1.9324604801759862,-36.447376556396485,-49.377002258300784,70.65562774658203,-0.025756985643038563,2.547807069312708E-4,0.024057108055179317,0.823483699729832,9.540043523996184,1.9324604801759862
74.0,6.401267487044428E-4,0.13284206131071435,-0.1637432256202195,0.7742311659396863,9.465694567736458,2.2683373526030897,0.09171386007772814,-0.060598019233877115,-0.03283935587041744,0.3768557523395501,0.2160733722004236,0.6443045098407596,0.6282901226305494,-1.2262625986454534,-1.340749120011049,-2.0981832357013928,-27.09262619018555,-32.20050132751465,22.507125854492188,214.9679137275221,none,false,false,false,,,,,,,,,0.7745529789587154,9.5980063606711,2.104155975275253,-35.56012649536133,-48.41850196838379,75.15075302124023,0.09315284667997667,-0.06485098824919303,-0.03445804388363763,0.7745529789587154,9.5980063606711,2.104155975275253
75.0,0.09181963762437756,0.003921623351146476,-0.0858205644345626,0.9848006721770409,9.43039067901007,2.3614337987238816,0.027355759710475217,-0.022504165362311052,-0.013609803500859177,0.386133651137352,0.21007751941680908,0.6366984665393829,0.6327898406982422,-1.1512833142280579,-1.3199894964694976,-2.029345428943634,-18.459000682830812,-31.775251388549805,22.72800079345703,215.2441750316775,,,,,,,,,,,,,1.0609916323694484,9.460280645011675,2.2667704207758135,-26.926876106262206,-47.989501953125,75.37200332641602,0.03306874995585531,-0.03333962407428771,-0.014232625449076296,1.07186104870867,9.48295394897461,2.270257624476217
76.0,0.09730410769435704,-0.4061381109538214,-0.003748315696914991,0.9603278423641243,9.534033139546713,1.961633594597087,-0.046114232640086426,-0.016675619445372335,-0.01218848996841819,0.3778447269224653,0.22420281332497502,0.6312084157092899,0.6386772166280186,-1.0710092093430312,-1.3510943043465709,-1.9564195368804185,-18.661875801086424,-25.335375938415527,16.510125827789306,213.1389002250836,none,false,false,false,,,,,,,,,1.0571868234341417,9.127443098554425,1.9574383226789387,-27.130501136779785,-41.55262649536133,69.15412841796875,-0.044660271938410726,-0.020921783152930806,-0.013796287256818597,1.0571868234341417,9.127443098554425,1.9574383226789387
77.0,-0.06901061224594417,-0.37753262761795875,-0.28300489331272866,0.8516306239779633,9.554043089989388,1.929425542897517,0.0199186279274085,0.0072403193506247856,0.0016297801242520411,0.3784156317758088,0.22346551347487043,0.6347678480762067,0.6351828474809628,-1.1220799277324487,-1.350188727426057,-2.007216766329095,-24.851626014709474,-23.40337589263916,18.01725076675415,217.54498454537833,,,,,,,,,,,,,0.782241126070592,9.176002393854727,1.6459842407430458,-33.320626449584964,-39.6206266784668,70.66312789916992,0.02136507346842657,0.0029899504893988954,1.7524226659945414E-5,0.782241126070592,9.176002393854727,1.6459842407430458
78.0,-0.016294970541344125,0.09814041438005348,-0.19879215561074787,0.8494557649782388,9.523020007822772,2.0186919646688026,-0.05205337482504547,-0.003367375135421753,-0.021711249966174365,0.3891673586746254,0.22187266565195404,0.634262225415447,0.6293993202766569,-1.1387477381394642,-1.331658679660004,-2.039501862950844,-27.985876197814942,-28.224001274108886,18.49537588119507,213.1399601146556,none,false,false,false,,,,,,,,,0.8329025096084812,9.620641042690465,1.8194421627697084,-36.45375129699707,-44.441626663208005,71.14087890625,-0.05061237496323884,-0.0076106249820441,-0.02332962492480874,0.8329025096084812,9.620641042690465,1.8194421627697084
79.0,0.03499183162014083,0.15474201956450348,-0.07589402245265423,0.8998195543737695,9.496832875922175,2.1540923626116006,-0.010420342902744226,-0.011613358108911152,0.009817769057026096,0.3820347245967034,0.2227737114276036,0.6371725136690801,0.630802832617618,-1.1661405032223995,-1.3436384496122304,-2.056253436768409,-27.52875114440918,-31.173001289367676,20.472000617980957,213.25731872453105,,,,,,,,,,,,,0.9345089581479217,9.651082171071874,2.077721380407341,-35.99700149536133,-47.39100173950195,73.1167527770996,-0.008973896407577045,-0.015861028421889332,0.008205514200323937,0.9345089581479217,9.651082171071874,2.077721380407341
80.0,-0.08869353711819641,-0.13631009675708472,-0.08316152944576506,0.8654898326186573,9.483704894196753,2.189046552368239,4.642336942845642E-4,3.594061830034941E-4,0.01471794639612631,0.3874223623789993,0.21884233504533768,0.637672036301856,0.6282844490864697,-1.173916855279137,-1.3303598656373865,-2.0671297335157206,-25.328251037597656,-31.58887622833252,20.266125831604004,212.6684822684232,none,false,false,false,,,,,,,,,0.7763941559904054,9.34691809205448,2.105450100525666,-33.794251594543454,-47.80650184631347,72.9105030822754,0.0019045792022111393,-0.003892202898491137,0.013096535785842946,0.7763941559904054,9.34691809205448,2.105450100525666
81.0,-0.011535030617378652,-0.3439764755032957,-0.12206957852467895,0.9911354085803032,9.465588006973267,2.245292618274689,0.004513234909002979,0.05987316195159128,0.010119730816679258,0.39060925245285033,0.21830669149756432,0.6371195942163468,0.6271700668334961,-1.18052418589592,-1.3251560378074645,-2.0781730794906617,-25.55250114440918,-30.954000968933105,18.802500762939452,211.26748150678748,,,,,,,,,,,,,0.9728391538604652,9.115498986574682,2.124558511641946,-34.022251510620116,-47.17087661743164,71.4468783569336,0.005151484968454236,0.05668948094203773,0.010400990061093084,0.9728391538604652,9.115498986574682,2.124558511641946
82.0,-0.04676186049690324,-0.2727472583178942,-0.1998286644252492,1.1103561234240438,9.447682969710407,2.251279015167087,-0.014312251996580917,-0.017880446185348647,0.015906435677246884,0.38649359959013324,0.20810896275090238,0.6343272065415102,0.6360656420389811,-1.1223562108535392,-1.3165388399479436,-1.9978577973795872,-26.902126121520997,-28.916251182556152,18.811125717163087,213.03281850546423,none,false,false,false,,,,,,,,,1.0631868145405772,9.174474010280534,2.0510162693795326,-35.37000144958496,-45.133501510620114,71.45362808227539,-0.012866460791982637,-0.02213205472280336,0.014297277735785978,1.0551594550430885,9.20013167126344,2.0501451415775143
83.0,0.02194626847660114,0.04013984205920507,-0.26380365432037206,0.9389888030467647,9.491175594896372,2.1590168948220736,-0.028674141225386775,0.027432596922724272,0.047279779082529394,0.36780115755477755,0.20591594234551533,0.6430682026513732,0.6387895870916914,-1.1783016542396922,-1.3394826213912208,-2.0199302741796665,-26.60025119781494,-29.83125118255615,18.91537567138672,212.40695704940282,,,,,,,,,,,,,0.9606178699632978,9.530844504290288,1.8947763190337337,-35.06850162506103,-46.04812683105469,71.55975326538086,-0.027243871648120237,0.023186274475472814,0.04567291738246294,0.9606178699632978,9.530844504290288,1.8947763190337337
84.0,0.017267733967552584,0.1801081979099442,-0.23276219387337857,0.7997619606116239,9.486477964064655,2.235786849377202,0.014983456714224875,-0.031046691560642978,0.008365931592005141,0.3682253834079294,0.2099478721034293,0.6443575182381798,0.6357712798258838,-1.1992032855164771,-1.344404679887435,-2.047607834432639,-25.203751068115235,-31.45312629699707,18.285750789642336,210.08417106585185,none,false,false,false,,,,,,,,,0.8167073891644239,9.666094574273801,2.002616275978439,-33.671251373291014,-47.668876571655275,70.93050323486328,0.01643394638656401,-0.03529570834236402,0.006750979250771743,0.8167073891644239,9.666094574273801,2.002616275978439
85.0,0.023048784784680486,0.002363007762195433,-0.09479293128128584,0.7743570290359796,9.508265710344501,2.139834984844806,0.04827066754811619,-0.058207424468185644,-0.007501237347980242,0.3720480402310689,0.22063911939952888,0.643303127265444,0.6311985324410831,-1.2161238602563447,-1.3546726212782019,-2.0866485390008664,-25.651126098632812,-30.400126266479493,20.25225082397461,213.63094217606104,,,,,,,,,,,,,0.7971029798226321,9.510060749801935,2.044617744235724,-34.11937641143799,-46.61737640380859,72.8955029296875,0.049709653947502375,-0.06246584105203942,-0.009121286424596121,0.7971029798226321,9.510060749801935,2.044617744235724
86.0,0.07593687106440268,-0.5019832071986529,-0.042473144097355114,0.6322942560557092,9.519143255630341,2.1319315634151494,0.034046079064080234,-0.01850318661708312,-0.03234889723506628,0.3732793570154964,0.2179020992895164,0.645535941171174,0.628978709773262,-1.2456117101234965,-1.3484454851339358,-2.1141595793242502,-25.31175090789795,-31.15125118255615,19.269375839233398,211.6470877865082,none,false,false,false,,,,,,,,,0.7080386425806486,9.01661770886714,2.0890411885067968,-33.77812648773193,-47.36700149536133,71.90962783813477,0.03548174007229653,-0.022757598993313664,-0.033958456045308824,0.7080386425806486,9.01661770886714,2.0890411885067968
87.0,-0.05584997813874746,-0.24022912803818197,-0.3515967329480119,0.7340345290653846,9.50199301102582,2.2101426533624235,-0.023546535116020995,0.022460147461826258,-0.011445173173036316,0.3805877636460697,0.21024253920597188,0.6431030765467999,0.629820713225533,-1.2080999659556968,-1.327337322281856,-2.0771749580607697,-27.60300115585327,-30.42487609863281,18.177375745773315,210.84718823553717,,,,,,,,,,,,,0.6778573832091164,9.261297548518462,1.8580206771399461,-36.06975143432617,-46.642876358032225,70.8217527770996,-0.022117079387760103,0.01820853868923565,-0.013054331257422962,0.6778573832091164,9.261297548518462,1.8580206771399461
88.0,-0.04359702807152644,0.20349426264408976,-0.22248507532756776,0.7251325786113739,9.413686962127686,2.5502041459083555,0.012519307688136798,4.8193119300326496E-4,-0.015080073567125762,0.3955823102593422,0.20883519887924196,0.6478833127021789,0.6159289413690567,-1.2932932448387147,-1.3000662922859192,-2.18543484210968,-26.16112606048584,-31.91812656402588,19.021125717163088,210.72866054506798,none,false,false,false,,,,,,,,,0.6813375354977325,9.616708955764771,2.3272591076046227,-34.63050159454346,-48.13425216674805,71.66625320434571,0.013962375816179089,-0.0037710378776387413,-0.016691956171157336,0.6813375354977325,9.616708955764771,2.3272591076046227
89.0,-0.004365401461209152,0.025328830176708745,-0.04155628889908686,0.9695122014073765,9.312418348648968,2.7781013565904953,-0.06179195511532892,-0.008034901504432507,-0.003820049267557293,0.3961142859622544,0.18153037262313507,0.642262226226283,0.629871652991164,-1.1938878718544454,-1.2644003910176895,-2.046283010174246,-27.598876228332518,-30.474001274108886,15.899625720977783,207.52614130330184,,,,,,,,,,,,,0.9647397508059501,9.33722985492033,2.736091288281422,-36.06450180053711,-46.6908763885498,68.54325378417968,-0.060343440718911956,-0.01228378865738759,-0.005442821042667521,0.9647397508059501,9.33722985492033,2.736091288281422
90.0,-0.11873478109551834,-0.4512957138110801,-0.08104040658119882,1.0442771194594922,9.394019655662008,2.4570311709205703,-0.039537989872270356,0.05451470629001657,0.05212058827244476,0.39036662242200115,0.19039183176390015,0.6433036929309959,0.629614521961401,-1.2079264126201668,-1.2853581492263493,-2.063893656919498,-29.47012607574463,-30.92925148010254,17.396625518798828,209.23317596973573,none,false,false,false,,,,,,,,,0.9252564795315266,8.942292024593542,2.37548031665311,-37.93762672424317,-47.14500198364258,70.04062759399415,-0.03810097981134758,0.05026838288861601,0.05050428956747055,0.9252564795315266,8.942292024593542,2.37548031665311
91.0,0.005335197612236929,-0.12418562056971531,-0.2048250471387862,1.084220648980608,9.458951678930545,2.17496355491526,0.008339850066026838,0.005705569119257207,0.010983663634166564,0.353825443223411,0.19573682385916805,0.6413059930006663,0.651213568799636,-1.0871068543078852,-1.3445940555310716,-1.8911727152618707,-29.955751037597658,-32.355751266479494,20.88525062561035,212.8828096016351,,,,,,,,,,,,,1.0891176983896715,9.334260730182423,1.9696662655355883,-38.424001388549804,-48.57300201416015,73.53075317382813,0.009787004145950374,0.0014580453257306968,0.00937178195223655,1.0891176983896715,9.334260730182423,1.9696662655355883
92.0,0.0054984731544362436,0.22260809375784626,-0.20662401083598633,1.2435807243432149,9.409765064126194,2.3456277882698737,0.028709189610227066,-0.022222426907141126,0.008822917509093588,0.37126025764068754,0.191113613767199,0.635020640817019,0.6491436639634689,-1.0719033662635502,-1.3127358962993811,-1.8973791009128684,-27.201001052856444,-34.085251541137694,19.156125774383543,209.238540711072,none,false,false,false,,,,,,,,,1.2486238217460786,9.631852409627179,2.138559004471702,-35.672251586914065,-50.30325218200684,71.79900283813477,0.030139460771655042,-0.026475491171118384,0.007213357160342675,1.2486238217460786,9.631852409627179,2.138559004471702
93.0,0.07441286370158195,-0.044033871854052824,0.04779275875839898,1.0434501672735308,9.39235787344451,2.492821100914832,0.0692986378234138,-0.0695750001485985,-0.013632921225363664,0.3817470517812991,0.18968971541114882,0.6387275749561834,0.6398781736691793,-1.1437747162931107,-1.297842544667861,-1.9842771326794344,-27.195001068115236,-34.455001754760744,17.554500617980956,206.944560595099,,,,,,,,,,,,,1.1157647590792061,9.34987837193059,2.532616293897816,-35.66212631225586,-50.67225242614746,70.19700317382812,0.07073490142287446,-0.0738252457046863,-0.015254330641525512,1.1157647590792061,9.34987837193059,2.532616293897816
94.0,0.10599990761979963,-0.32615282706389526,-0.007807715523122537,1.1169318219627997,9.413450289254238,2.4004318087992043,9.693745896220208E-4,-0.008746375031769275,-0.004888123665004969,0.37897512529577526,0.1898227867727377,0.6380217878185973,0.642045257651076,-1.1300629961247346,-1.301106934644738,-1.966301984932958,-25.35150104522705,-32.82975120544434,17.77762571334839,208.34639960614788,none,false,false,false,,,,,,,,,1.2277337199648712,9.057566222577993,2.38702731822977,-33.8216263961792,-49.04662719726562,70.42275314331054,0.006054165801315597,-0.01668888861031243,-0.008369443585362398,1.2224758146048496,9.086810988609237,2.3920879704181592
95.0,-0.16474789175859625,-0.30640858815669425,-0.2761738838404325,1.0966099424689424,9.413224126778397,2.4293935953402053,-0.03807116260217263,0.0062120039578490325,-0.025873143797611246,0.39490831394990283,0.19086302977566624,0.6361873412833494,0.6339902159045724,-1.1483329242351008,-1.279763289526397,-2.0124893059917524,-26.18212615966797,-31.940251388549804,15.940500659942627,206.48278374487612,,,,,,,,,,,,,0.9381221075104001,9.08753719516829,2.1613677475948396,-34.65000129699707,-48.158251953125,68.58225326538086,-0.0370521246548742,0.0020996222086250784,-0.029181625614874064,0.9381221075104001,9.08753719516829,2.1613677475948396
96.0,0.005164534412324428,0.18989075127989052,-0.20063391072675585,1.168468744158745,9.362860050201416,2.5656322479248046,0.006629656105503148,-0.0412176460776405,-0.011315440836672982,0.3890395676246797,0.185000838655414,0.6368031242881158,0.6387694201084099,-1.138212668775308,-1.280259249186275,-1.983897247699776,-29.229001121520994,-32.230126266479495,15.995250625610351,206.31663576996561,none,false,false,false,,,,,,,,,1.1639124294466312,9.519441510191058,2.3577194175876603,-37.69875144958496,-48.44737693786621,68.64037734985351,0.008776624798774718,-0.049693874986842274,-0.01453099962323904,1.1639124294466312,9.519441510191058,2.3577194175876603
97.0,-0.015010937847489235,0.03896222577667704,-0.09245816665683307,1.2203141667094886,9.293315522810992,2.7978071839201686,-0.029189480002969503,0.013745916154383137,0.017865470416917658,0.38248620824058455,0.16823708981570631,0.6420864816939477,0.6424523267415491,-1.1651882346313778,-1.266042427261277,-1.9752183314597254,-29.990251197814942,-34.229251556396484,15.446250591278076,204.26609948368323,,,,,,,,,,,,,1.2048427004221023,9.331779816571403,2.7049030693722704,-38.45737632751465,-50.44725242614746,68.0887530517578,-0.02776410910623646,0.009487499441435137,0.01626039583162211,1.2048427004221023,9.331779816571403,2.7049030693722704
98.0,-0.14088412082754076,-0.13428906905464827,-0.045281173223629595,1.1398634822061746,9.355565156086836,2.5990628240132096,-0.023583945690416823,0.01879975542553938,-4.017154603977414E-4,0.3924711826443672,0.18890972107648848,0.6370522999763488,0.6353050547838212,-1.1492897629737855,-1.2811437702178956,-2.006440529823303,-27.903376235961915,-33.742876892089846,16.654125728607177,206.23095873267405,none,false,false,false,,,,,,,,,1.0013220486976206,9.218713912963867,2.5595191222429277,-36.37087661743164,-49.96087730407715,69.29962799072266,-0.01934529609959757,0.011295420809252428,-0.003244181546281175,1.0013220486976206,9.218713912963867,2.5595191222429277
99.0,-0.0037564300931990148,-0.3597580559179187,-0.2791654250025749,1.154955382347107,9.412414274215699,2.365324971675873,-0.0417119996715337,0.11330137545242906,0.07585462489165366,0.3888838872313499,0.19615997955203057,0.6357081174850464,0.6363211357593537,-1.1433878207206727,-1.2961584043502807,-2.0054362273216246,-27.66187614440918,-31.5195011138916,17.273250732421875,208.65125308672498,,,,,,,,,,,,,1.1255382913456975,9.042384241141525,2.0582839171676075,-36.128626403808596,-47.735626754760744,69.91800338745117,-0.040119444274089554,0.11189027641890477,0.07661527691578324,1.1507895572017879,9.052141923904419,2.085658595263958
100.0,0.004136981037445367,0.06520500540733337,-0.2449657303094864,1.1333664613962173,9.485438861846923,2.084417986869812,-0.007484900612974226,-0.004349628265135654,0.016195050376181554,0.38106271985805396,0.21128711029134614,0.6320752953038071,0.6404114901417434,-1.0884175119978008,-1.328673404876632,-1.9597353152554444,-28.515376052856446,-29.91375114440918,17.72437587738037,210.58328603940703,none,false,false,false,,,,,,,,,1.1372025537060109,9.550104484558105,1.8389880799595266,-36.98362648010254,-46.13100143432617,70.36912811279296,-0.0021055560286222684,-0.013115277871339008,0.01390972144600719,1.1372025537060109,9.550104484558105,1.8389880799595266
101.0,0.11440418652879696,0.16371001664311716,0.03778571898446364,1.120897946112296,9.46536558749629,2.124975348220152,0.11442858872861408,-0.10148997472986432,-0.033932548901527235,0.38127612804665284,0.20944102955799476,0.6321739525187249,0.6404336083169077,-1.0831420801433862,-1.3256233918900584,-1.9522305656881893,-33.52987636566162,-28.933875999450684,18.066750755310057,211.94976010422303,,,,,,,,,,,,,1.2348265327175385,9.628568097656848,2.1622824562238714,-41.99812675476074,-45.150001525878906,70.70775299072265,0.11586348919917157,-0.10574158308750922,-0.03554306912355789,1.2348265327175385,9.628568097656848,2.1622824562238714
102.0,0.0436980415491716,-0.5029767775798545,0.059130759256910165,1.0933679073464637,9.473013027041565,2.1958807928889406,-0.029763357540336894,0.052909191355437916,0.010185784491363401,0.3900044916891584,0.19725976314614801,0.6333164742179945,0.6378850299938053,-1.1127263389381707,-1.296225159775977,-1.9782368926440967,-36.32212661743164,-29.118751029968262,20.862000770568848,215.56408863820107,none,false,false,false,,,,,,,,,1.1366427000429409,8.96953421013028,2.254511872781258,-44.78887649536133,-45.336752014160155,73.5056283569336,-0.028324999138895496,0.048653430611296906,0.008568137158256243,1.1366427000429409,8.96953421013028,2.254511872781258
103.0,-0.12234731896383928,0.051489126859324996,-0.34590043813580335,0.7396429902551198,9.543665980348493,2.0112385360321197,-0.038381372290827775,0.08033235252414848,-0.014630268327891827,0.40446665115875774,0.23150522623321798,0.6373350868130675,0.6132113573574783,-1.24126134650542,-1.3222386482918616,-2.1821428549171675,-30.88950122833252,-30.35362606048584,28.06087619781494,222.66581548719364,,,,,,,,,,,,,0.6170168626859858,9.594668761338339,1.6648961215621174,-39.35550155639648,-46.571626815795895,80.70450302124023,-0.03694301384373331,0.07609007290710568,-0.016233088069723223,0.6170168626859858,9.594668761338339,1.6648961215621174
104.0,-0.30290784098335777,0.48400498832137706,-0.44875465388245445,-0.44540930909159426,8.981859824236702,3.5213451478995528,0.16053737264753568,-0.22849368657640154,0.18239442985689286,0.37832922678367764,0.12920847085907178,0.708221460089964,0.5719089467151492,-1.631728005175497,-1.1517791666236579,-2.3851078082533443,-26.06812599182129,-32.86200122833252,16.362000627517702,206.29130196628137,none,false,false,false,,,,,,,,,-0.7481059226043084,9.465438683827719,3.0720913261175156,-34.534126358032225,-49.07925186157227,69.00412780761718,0.16197363748261245,-0.23273984946328963,0.18078935452469505,-0.7481059226043084,9.465438683827719,3.0720913261175156
105.0,0.27020302034988264,-0.9899505458501747,0.10738035554232278,7.144213235208599,4.22175414491408,-1.3577621866497074,-1.0919845521030034,0.2252613948840721,-1.3035795274601483,0.30895713679861314,0.15599649510171154,0.22432119830852687,0.8655949258568263,-0.06808051157576761,-0.5099900913710641,-0.8602342012495098,-35.64825119018555,11.677500658035278,28.479376068115233,283.8423557984672,,,,,,,,,,,,,7.414001353306346,3.231280847941295,-1.2500718406927172,-44.11650177001953,-4.538625211715698,81.1245036315918,-1.0905556320075822,0.22101507352792896,-1.3051863907306802,7.414001353306346,3.231280847941295,-1.2500718406927172
106.0,-0.06341172754764557,0.06466508972119879,0.06533418248661539,9.535098856145686,1.5550434589385986,-1.6439853581515225,-0.033924998842518435,-0.05862499934367158,-0.032687499187886715,0.1851025399836627,0.09458227387883446,0.06863554499366066,0.9757424592971802,0.16219800575212998,-0.16977065124294974,-0.3611247783357447,-43.537501653035484,37.971876780192055,22.618750254313152,329.2191843305723,none,false,false,false,,,,,,,,,9.47117770801891,1.6191682707179675,-1.5781909769231623,-52.006252924601235,21.756250699361164,75.25937779744466,-0.03248749995096163,-0.06287499957463959,-0.0342875002798709,9.47117770801891,1.6191682707179675,-1.5781909769231623
