seconds_elapsed,accelerometer_z,accelerometer_y,accelerometer_x,gravity_z,gravity_y,gravity_x,gyroscope_z,gyroscope_y,gyroscope_x,orientation_qz,orientation_qy,orientation_qx,orientation_qw,orientation_roll,orientation_pitch,orientation_yaw,magnetometer_z,magnetometer_y,magnetometer_x,compass_magneticBearing,network_type,network_isConnected,network_isInternetReachable,network_isWifiEnabled,network_isConnectionExpensive,network_ssid,network_bssid,network_strength,network_ipAddress,network_frequency,network_cellularGeneration,network_carrier,totalAcceleration_z,totalAcceleration_y,totalAcceleration_x,magnetometerUncalibrated_z,magnetometerUncalibrated_y,magnetometerUncalibrated_x,gyroscopeUncalibrated_z,gyroscopeUncalibrated_y,gyroscopeUncalibrated_x,accelerometerUncalibrated_z,accelerometerUncalibrated_y,accelerometerUncalibrated_x
0.0,-0.20451591754712725,-0.03778071174778605,-0.29697520389992704,7.485675791258453,4.772615473757508,2.4362366682779726,0.821626858830333,-0.7196428192819052,0.28521595561401325,0.3314896664952719,0.019394688026589012,0.28555290433027414,0.8831899678835304,-0.18610115093930113,-0.5252476286503577,-0.7704923748970032,-48.01635823351272,-0.002393619177189279,15.015957999419658,232.1531618203586,,,,,,,,,,,,,7.27604555570951,4.727776019803939,2.1433404123270385,-56.482582173448925,-16.217154939123926,67.65917814538834,0.8230764549324646,-0.7238906846540247,0.2836039844712124,7.27604555570951,4.727776019803939,2.1433404123270385
1.0,-0.6421098586005887,0.2629846525885681,0.49861960255052196,1.0941055283540546,6.600549362673618,6.083446172204348,-0.6555605179786977,-0.43705123530165985,0.5892215363755084,0.32844697883223545,-0.06975328761826058,0.6129974758270944,0.6852429107864304,-1.329453211019535,-0.9457529635712651,-1.7293896096767765,-30.18975100517273,-28.79475125312805,-6.430125246047973,161.27640337146255,,,,,,,,,,,,,0.4519812107307486,6.8630735815161525,6.581520632942124,-38.65462651968002,-45.012001953125,46.21387664794922,-0.6541228921770459,-0.44130693022899403,0.587606926918915,0.4519812107307486,6.8630735815161525,6.581520632942124
2.0,0.1397046770023949,-0.13591688641292207,-0.6180559824513016,-0.0821095896318701,9.239915772980334,3.1188343529607736,-0.027245221276055363,0.17797487678791524,0.05690612846656757,0.16683893146760323,0.026856588152226964,0.6790412746223748,0.7114813812807494,-1.2314400135302077,-1.360238910890093,-1.508137768390132,-27.864001197814943,-34.77375137329101,4.995375218987465,187.94737008521125,none,false,false,false,,,,,,,,,0.05759559085994374,9.103540130690032,2.500251590475148,-36.33187629699707,-50.99100212097168,57.63975212097168,-0.025796077702669243,0.17372316059966883,0.0552871309713844,0.05759559085994374,9.103540130690032,2.500251590475148
3.0,0.12507294989790363,0.32585976331835925,-0.17178571203926413,-0.5334797034753354,9.118976677998457,3.503666094034025,-0.0022190600716610357,-0.038753217782382623,-0.030590347447755312,0.22006266202666971,0.06774437630383096,0.6967938684000827,0.6779321916032546,-1.502646293970618,-1.3504096777132242,-1.9153697667735639,-24.29137577056885,-36.592876510620115,8.01300030708313,192.26702827221212,,,,,,,,,,,,,-0.4082094253511122,9.444319725036621,3.3313427378635594,-32.75925140380859,-52.81012718200684,60.65587730407715,-7.69183740462407E-4,-0.042998019296970995,-0.03220631078918382,-0.4082094253511122,9.444319725036621,3.3313427378635594
4.0,0.03630860569186066,-0.2878478774224583,-0.09775438922743249,-0.7583431300734824,9.222606545627707,3.161593179891605,0.005881187745766474,-0.04267809438602169,-0.030559035008865417,0.23628344674511711,0.09371241543552664,0.701137902713058,0.6657429184063827,-1.5732078823712792,-1.360668430233946,-2.0470070921548524,-22.363125762939454,-36.934501571655275,9.77962537765503,194.81702641020314,none,false,false,false,,,,,,,,,-0.7217287508042364,8.934284087454918,3.0633654854085184,-30.831376190185548,-53.152127227783204,62.42212745666504,0.007235767767017726,-0.04704406000858191,-0.03159096532289197,-0.7217287508042364,8.934284087454918,3.0633654854085184
5.0,0.2079249514653843,-0.3751118627773358,-0.3403904665316833,-0.6883499414987383,9.132432295544312,3.404276684959336,0.06937487524851124,-0.025858167489750845,-0.07004331631844143,0.2516825132735885,0.07949156443228816,0.6996811091309727,0.6629740696142216,-1.553435441290978,-1.3195949899088038,-2.0302493631249607,-22.06950092315674,-36.885751190185545,7.100625281333923,190.8181395824147,,,,,,,,,,,,,-0.48021833985896395,8.756796931276227,3.063415995328733,-30.535501289367676,-53.10300254821777,59.74612724304199,0.07082338990772714,-0.030107054771800146,-0.07166608871135971,-0.48021833985896395,8.756796931276227,3.063415995328733
6.0,0.10556428889642552,0.11468386060862552,-0.11364884030000114,-0.5519713088178473,9.050969331571372,3.6328999075559105,0.02232891892302124,0.03238799060037469,0.00450919183226777,0.27228510748631884,0.09568896078237213,0.6968854016596728,0.654885206482198,-1.5371375957337936,-1.3115951719850596,-2.068758283511247,-22.591875915527343,-37.16137634277344,7.640250306129456,191.54918948970143,none,false,false,false,,,,,,,,,-0.43849119843513357,9.139125398561067,3.5115780929724374,-31.060126304626465,-53.37862731933594,60.28575218200684,0.02410742636806894,0.033902600195517045,0.006763365313336991,-0.4461193292005227,9.165196437646847,3.518722428543733
7.0,-0.05801591980685987,0.17911213075760568,-0.1632564669926789,-0.38843860402518865,9.033668197027527,3.714154885546996,-0.011142944884809231,0.10209170928556878,0.012257920384480812,0.27805888903613135,0.09211422665284412,0.6940028000586104,0.6557046865472699,-1.5121826677039119,-1.3001435003658333,-2.0474709508442643,-22.646626014709472,-37.605751571655276,7.28850028514862,190.85207006647383,,,,,,,,,,,,,-0.44622774502391566,9.212326134785567,3.550370948149426,-31.11300121307373,-53.82037712097168,59.93100212097168,-0.009690347030795741,0.09783737867203827,0.010648763259079787,-0.44622774502391566,9.212326134785567,3.550370948149426
8.0,0.025956116078019727,-0.33292344154096115,-0.020705277259991158,-0.24670846053085566,9.08411730971991,3.6144052463419296,0.022807475412264466,0.07358406593694407,0.0536519608405583,0.2706968040735114,0.08212654873290483,0.6888803407257679,0.6661080355737724,-1.4365664475104387,-1.2992917392768113,-1.9460287082429026,-22.76437587738037,-36.42600151062012,6.763875269889832,190.4577174418597,none,false,false,false,,,,,,,,,-0.22059707062355444,8.750696056029376,3.5931854820718954,-31.234126091003418,-52.64287712097168,59.40600219726562,0.024245832690640408,0.06933235393508393,0.05204509722306302,-0.22059707062355444,8.750696056029376,3.5931854820718954
9.0,0.04770416564810652,-0.28864126278566987,-0.30940287379492626,-0.4151946234396926,9.167572673004452,3.3841463952961535,-0.06672289578410068,0.030235025455419083,-0.007960025442413764,0.2765068622803924,0.09844819803049068,0.6978147584613007,0.6522846044880328,-1.550982145979853,-1.309586009176651,-2.092753018483077,-21.051375770568846,-37.78762672424316,7.557750291824341,191.24665293033425,,,,,,,,,,,,,-0.36725793989135486,8.878454397220423,3.0742204366344037,-29.519626083374025,-54.00450248718262,60.20250228881836,-0.06528118655712593,0.025979332671971014,-0.009575990300699331,-0.36725793989135486,8.878454397220423,3.0742204366344037
10.0,0.15411124461074815,0.08812324986131131,-0.21698998789275614,-0.3069549693963399,9.166011651357016,3.397205909093221,-0.032684558162502216,-0.04988553960278046,-0.02437389687196735,0.2780361754052779,0.10233842135936606,0.6915041196580026,0.6579296010382035,-1.4907567968555526,-1.3163568120376736,-2.0402376616702362,-21.320625877380373,-37.005001602172854,7.5952503204345705,191.54599721372048,none,false,false,false,,,,,,,,,-0.15274559776755234,9.25362688887353,3.1797354490149257,-29.78925136566162,-53.22187744140625,60.23737716674805,-0.031248897049283863,-0.05413590737746334,-0.025978063068845692,-0.15274559776755234,9.25362688887353,3.1797354490149257
11.0,0.1588249201886356,0.24446556869894265,-0.20182476358488202,-0.0740758710636499,9.158926888267592,3.406585403008036,-0.03154467933783584,-0.06296274709598262,-0.03810655806066081,0.2737458908911979,0.0964507625465936,0.6827840403755112,0.6690851939786778,-1.3850115195359334,-1.3161715339906146,-1.9196275035933692,-23.92012596130371,-35.61487655639648,7.311750278472901,191.55936570139255,,,,,,,,,,,,,0.08267822282591669,9.416892013927498,3.2181165005901073,-32.3872509765625,-51.83250221252442,59.954252319335936,-0.033818124965764584,-0.06679887510836124,-0.03999737519770861,0.08267822282591669,9.416892013927498,3.2181165005901073
12.0,0.1159519707491877,-0.06694501983549665,-0.053139033261686563,-0.1652310786736837,9.236129611146216,3.214998764150283,-0.023942524014844323,-0.04179865183016541,-0.015138480273604977,0.27323874451366126,0.10084481383947765,0.6871888035652685,0.665110346733355,-1.4286445542877795,-1.3240069139237498,-1.9684326753896826,-23.54625102996826,-35.6193766784668,8.04375030517578,192.7122793484376,none,false,false,false,,,,,,,,,-0.04920294350378361,9.168722498650645,3.161356045334947,-32.014126205444335,-51.83550216674805,60.68662734985352,-0.022500122043614585,-0.046053063329857064,-0.016753431368509635,-0.04920294350378361,9.168722498650645,3.161356045334947
13.0,0.10930994976228933,-0.39011726867739516,-0.18518235840567268,-0.2746136038849997,9.317764197245683,2.958648641510765,0.002308911127545456,-0.007358291154118753,0.0030168321186510643,0.27345627797122046,0.110941118311764,0.6900805771941005,0.6603705523037674,-1.4715733693377806,-1.3364062380082538,-2.02623176338649,-23.578125915527345,-35.289751510620114,8.238000326156616,193.1323159783524,,,,,,,,,,,,,-0.1652420879950249,8.92716877059181,2.772969913954782,-32.04450138092041,-51.507377548217775,60.88350250244141,0.003749258336749407,-0.01160581637229217,0.001402227613742989,-0.1652420879950249,8.92716877059181,2.772969913954782
14.0,0.07560783505494542,-0.2901709051894061,-0.21467315637524806,-0.2959609612780874,9.35018066331452,2.8620898559981702,0.01049044038004735,-0.0010069844623406727,-0.03979681290722653,0.29158498083843903,0.14247949976547092,0.6875261693608528,0.6487725827039457,-1.5186123625904906,-1.3517032698089002,-2.146762620000278,-24.499500885009766,-35.43525131225586,11.425500450134278,197.8451404980282,none,false,false,false,,,,,,,,,-0.22028089481447002,9.05952102062749,2.646916302980161,-32.96662616729736,-51.65175216674805,64.06800277709961,0.01194093041304572,-0.005260048434138298,-0.04141311301831521,-0.22028089481447002,9.05952102062749,2.646916302980161
15.0,0.11652176253614016,0.10884940878488124,-0.22515645006205887,-0.2670184345454863,9.127135909429871,3.478267221167536,0.06476522224153032,-0.014282303599474749,-0.0460366334461856,0.30627650797367095,0.1130242994427681,0.6920463198423386,0.6427038234472274,-1.5167144227027893,-1.2870216631889344,-2.1255183601379395,-29.720626220703124,-36.835126419067386,11.396625499725342,197.17139866855302,,,,,,,,,,,,,-0.14646535434087019,9.211233054057207,3.245346681906445,-38.18887657165527,-53.05200218200684,64.04137794494629,0.06929724911227822,-0.013765126504004,-0.04415950068738311,-0.14646535434087019,9.211233054057207,3.245346681906445
16.0,0.06748693143055776,0.06358338890633747,-0.03836112343432272,-0.08181423650524926,9.174636588377112,3.3503332114687154,0.0395312489686059,0.04323835706557421,0.008558699883995395,0.2916983149799646,0.09723788141912106,0.6875715471950232,0.6564733315916622,-1.4475384740268482,-1.290401771956799,-2.0109099804186354,-51.26025207519531,-35.44462646484375,2.86275009393692,182.03474315777862,none,false,false,false,,,,,,,,,-0.014342652291388196,9.2377489454606,3.311491328711603,-59.72850257873535,-51.66150215148926,55.50562728881836,0.04097904387277131,0.03899877355890531,0.006946446223403601,-0.014342652291388196,9.2377489454606,3.311491328711603
17.0,-0.04675786239141137,-0.2988816724472338,-0.07969625642762916,0.2511222064126246,9.365017862603215,2.8213966435725144,-0.04064418345523795,0.24598749835818712,0.013834405930178,0.27610518805461354,0.09642298065937392,0.6761483142871668,0.6736105054912,-1.3125381021216365,-1.3148602790171557,-1.8511308856529765,-29.586376152038575,-9.166875357627868,-1.532250108718872,169.20875961683265,,,,,,,,,,,,,0.2096544210741972,9.093712217667523,2.7500986600039052,-38.055001449584964,-25.382626152038576,51.111377220153805,-0.03919839006064847,0.24173861152796758,0.012218440564736576,0.20424505849115293,9.06566035393441,2.741218941341532
18.0,0.0447257738468228,-0.32461030781730127,-0.2424374453280822,0.11599594092291624,9.4548232956688,2.5086703524731173,-0.12701188008955652,-0.0406904690991165,0.023173514375518456,0.3321614961812992,0.20073162461861527,0.6610890780345048,0.6414143814898954,-1.3287504026205232,-1.3822271871094656,-2.105460605999031,-15.955125762820243,-9.010500297546386,6.660375258922577,201.29585607873418,none,false,false,false,,,,,,,,,0.16067376880362483,9.129652448219828,2.2657545661129572,-24.422251081466676,-25.227001190185547,59.30512733459473,-0.12557970294913295,-0.044936634766140786,0.02156163299788195,0.16067376880362483,9.129652448219828,2.2657545661129572
19.0,0.12517199826919856,0.12742301763272754,-0.15190092139585198,0.23527672509754113,9.564631770638858,2.000752336838666,-0.04806029355591711,0.006230637020267108,0.015050859076390956,0.28964050961475746,0.18599645048379898,0.663053129233566,0.6639768773434209,-1.2224507577279036,-1.4227804974013685,-1.9107735940054351,-14.545875551700592,-23.3471258354187,29.83087615966797,233.2122416060982,,,,,,,,,,,,,0.3602808975413734,9.691591683556052,1.8484015553532278,-23.014875831604005,-39.5647513961792,82.47337783813477,-0.04663002302906677,0.001977573441085862,0.013443994614313923,0.3602808975413734,9.691591683556052,1.8484015553532278
20.0,0.10387169154324007,0.11584414128619845,-0.10642633421604733,0.033357861713450954,9.437991784350707,2.5750357278502816,0.04641509812675638,-0.053744800955905475,-0.020811510101735296,0.2981971101005479,0.1687344551676571,0.6736029433731986,0.6539389898281286,-1.3868700655380097,-1.3848155571682619,-2.063259475301988,-24.10012592315674,-33.71812656402588,17.387625770568846,207.08067791928778,none,false,false,false,,,,,,,,,0.13712079649662026,9.553362336489233,2.468122396101751,-32.56762645721435,-49.93575248718262,70.0316276550293,0.047852722471487696,-0.058003216520837036,-0.022420668826982525,0.13712079649662026,9.553362336489233,2.468122396101751
21.0,0.10352957764110875,-0.2300974920519865,-0.12226888504536713,7.07048824623081E-4,9.43909303814757,2.5662883859054717,-0.006304780852195679,-0.07202843135204531,0.0024588238402251518,0.2977464812643388,0.16053435469374938,0.6754446841922461,0.6544309977222892,-1.390313566899767,-1.3734262048029433,-2.0540396769841514,-27.532126121520996,-33.838876190185545,14.063625583648681,202.53175503019057,,,,,,,,,,,,,0.10421912068975907,9.208551902397007,2.4435192364468876,-35.998501510620116,-50.055377349853515,66.70725311279297,-0.004873160971328616,-0.07628149392685908,8.425242678426645E-4,0.10421912068975907,9.208551902397007,2.4435192364468876
22.0,0.08094865317908254,-0.4341962258930844,-0.3248122930803364,-0.2223571000273782,9.401005046202405,2.660384769486909,0.02246559376708499,-0.01961076726196426,-0.051875618770534156,0.3083629493076022,0.1639122368380575,0.6824889218453134,0.6414115753504309,-1.5052355126579209,-1.3571852563631417,-2.1905932284817835,-26.337751235961914,-35.907751846313474,15.36112564086914,203.169801383341,none,false,false,false,,,,,,,,,-0.14142178851041462,8.966308376576642,2.335108037779827,-34.80675148010254,-52.12387718200684,68.00512771606445,0.023920914204330138,-0.023863736466310993,-0.05348613833326219,-0.14142178851041462,8.966308376576642,2.335108037779827
23.0,2.001290426285255E-4,0.05367468924510597,-0.12134521872688103,-0.2570024489541538,9.446222800834507,2.533159972405901,-0.027275370802767207,0.0058839108638170335,0.009317327249278822,0.29428981959819794,0.16120808005332946,0.6855436259508133,0.6456585705280304,-1.5368560099601745,-1.3730071473121643,-2.1962347269058227,-24.9078759765625,-36.309751434326174,14.979375629425048,202.40304203491308,,,,,,,,,,,,,-0.24821030647110412,9.538826891020232,2.4021162899101483,-33.37762641906738,-52.52812713623047,67.62225372314452,-0.029139109546005137,0.0028738857634218024,0.008135642639665616,-0.24821030647110412,9.538826891020232,2.4021162899101483
24.0,-0.07782117841709958,0.031285496594587174,-0.1468907437206371,-0.19162217606006576,9.396388016124764,2.6900549525081523,0.0825775987514765,0.12020903310766166,0.028288242748320692,0.30965657487954246,0.16718239595394324,0.6841113655874045,0.6374262028401441,-1.534117306813155,-1.3569838741038105,-2.226814113040962,-23.152500915527344,-36.76087684631348,15.279750556945801,202.57805418128336,none,false,false,false,,,,,,,,,-0.2692618947660569,9.427166263655861,2.542684286537737,-31.62187629699707,-52.97887741088867,67.92150268554687,0.08401113845371079,0.11595878573503382,0.026674999399018465,-0.2692618947660569,9.427166263655861,2.542684286537737
25.0,0.028578548792603554,-0.29739441647760423,-0.057417011217159385,-0.033187891329255176,9.41794220606486,2.658896218327915,-0.03233946076429942,0.008523652777440991,-0.015870465257880734,0.31960666676362354,0.16770314629755767,0.6791586864228342,0.6385137748484518,-1.4809455170350916,-1.3475005229314168,-2.1893708425409653,-23.232000846862793,-36.213376693725586,14.359125576019288,201.59783546600852,,,,,,,,,,,,,-0.0045970595149579,9.12003280134762,2.6009163057395055,-31.699126358032228,-52.43100227355957,67.00200302124023,-0.03089571067625109,0.004269239615977687,-0.017482720771987065,-0.0045970595149579,9.12003280134762,2.6009163057395055
26.0,0.035462693631704345,-0.3491807580824093,-0.33085257074989305,0.09325652392027844,9.528678195311292,2.229621782161222,-0.071305321151446,0.03018193051569385,0.013031187633255331,0.2999209012135421,0.16986931550620807,0.6771708803601785,0.6491918203854324,-1.4528897682038864,-1.3810004137530185,-2.1336969503081673,-24.19312599182129,-34.97662673950195,14.454750633239746,202.41707145670682,none,false,false,false,,,,,,,,,0.12872079722491084,9.17897121032866,1.8982753378920036,-32.66137641906738,-51.1946272277832,67.09725311279297,-0.06985136193896432,0.025930321129905707,0.011417945247549232,0.12872079722491084,9.17897121032866,1.8982753378920036
27.0,0.13238848044591792,0.10648174417506465,-0.25633359842878933,0.04773766781755851,9.429920794917088,2.619651626138126,0.026077818075268,-0.04536286978434552,-0.010293627148676737,0.3183896112091401,0.16488434315896502,0.6774881300972957,0.6413823249293309,-1.450345799034717,-1.3463227386568106,-2.1528042905470905,-25.11150104522705,-35.56462661743164,12.775875492095947,199.71973854648581,,,,,,,,,,,,,0.18006177215983032,9.535903383703793,2.362829523288882,-33.57712650299072,-51.7815022277832,65.41950309753418,0.02752561281964767,-0.04961054006993186,-0.011912622653386173,0.18006177215983032,9.535903383703793,2.362829523288882
28.0,0.1338623359172356,0.1964082761787542,-0.21450562487439354,0.054050188991102845,9.4017336817071,2.6627992167331205,-0.06014467829303576,-0.032104207875926306,-0.02626249963177903,0.30536184393533383,0.15517496103697484,0.6788730060700143,0.6484748437853143,-1.4301706906592493,-1.3529695709152978,-2.098179231775869,-26.967751121520998,-35.40712677001953,12.048375492095948,198.7751432777537,none,false,false,false,,,,,,,,,0.18778366800213214,9.597659838081587,2.4478248697290623,-35.43675132751465,-51.6240022277832,64.69050231933593,-0.058711138470928265,-0.036359902434419875,-0.027878465739512207,0.18778366800213214,9.597659838081587,2.4478248697290623
29.0,0.1340228503772823,-0.19002016630060603,-0.009269357428397282,0.32479486300144345,9.557490208569694,2.0100249110483657,-0.039072916865823606,0.03230441117421815,0.012198406623165105,0.3031182081675997,0.18327535221389696,0.6626519408880496,0.6592528492796654,-1.2317173206338696,-1.3992257807769028,-1.9369147641986024,-27.50625114440918,-34.29037651062012,16.97887580871582,206.36453869744287,,,,,,,,,,,,,0.4590323721423891,9.346450441023883,2.0081662729966876,-35.97562652587891,-50.50575225830078,69.62212799072266,-0.03513873677405686,0.031596410480134264,0.011291337185677621,0.4555470485258663,9.36556380810124,2.0075347489944777
30.0,0.060534919276833535,-0.3868785243108869,-0.3044639188144356,0.15514458036923315,9.501235466003418,2.3086909711360932,0.04080862410366535,-0.1129782486660406,-0.044065999402664605,0.31142578095197676,0.1785611790418625,0.6685621976852417,0.6503250879049302,-1.3509543716907502,-1.3806393146514893,-2.0623445224761965,-26.82000102996826,-33.88987678527832,15.672750682830811,204.72787548441164,none,false,false,false,,,,,,,,,0.21043070144305873,9.116872655283107,1.9850391936073504,-35.28825172424317,-50.10712715148926,68.3178778076172,0.0422482493147254,-0.11722424800507725,-0.045673374612815676,0.2156055086525157,9.113841381072998,2.003779585454613
31.0,0.0111421093017413,-0.12758745108822397,-0.3126242926307753,0.08513698987571486,9.453574395647236,2.4872630822892283,0.056237499745489625,0.01095956059939721,-0.01864338257149154,0.3189614590476541,0.16605413646674624,0.6769403511402654,0.6413692960552141,-1.4456832069976657,-1.3479536584779328,-2.150814544920828,-27.723751106262206,-34.570501556396486,16.051500701904295,204.89729097057798,,,,,,,,,,,,,0.09627647330418375,9.325510702881159,2.174204523839495,-36.19125190734863,-50.78700225830078,68.6955029296875,0.057685292677442525,0.006709192518838772,-0.020256985645449043,0.09627647330418375,9.325510702881159,2.174204523839495
32.0,0.007542744562454005,0.15404747993602316,-0.11229911123835805,0.09483930731358209,9.426457452301932,2.5990434873222124,-0.0010060641711743751,0.08585581697966202,0.00725074300062981,0.3310973570488467,0.16907914853332065,0.6752654502887537,0.6360440071266477,-1.4459845370585376,-1.3341835005448597,-2.174787209765746,-25.168500938415526,-35.628376483917236,17.726625785827636,206.66123660873794,none,false,false,false,,,,,,,,,0.10245148985102626,9.580007406744626,2.486259034069458,-33.63300134658814,-51.84525249481201,70.37025344848632,4.2611391901379767E-4,0.08160420722964376,0.005636139629906652,0.10245148985102626,9.580007406744626,2.486259034069458
33.0,-0.060598755387735424,0.06470329518996033,-0.08739614199764807,0.12309956747819395,9.30485040066289,3.0019634728338205,0.0827035528525491,0.055458332850214315,0.03486838241966039,0.34001842849325425,0.16486860501884235,0.6749215391602846,0.6328673646001532,-1.433037243267097,-1.3142153119096662,-2.1699599936456964,-21.808875923156737,-36.36637664794922,16.475250720977783,204.3513968399316,,,,,,,,,,,,,0.062394120287624935,9.369021060420017,2.9140692661498107,-30.278251075744627,-52.5840022277832,69.1181283569336,0.08701027119255597,0.055740594186146956,0.036946658040442976,0.062394120287624935,9.369021060420017,2.9140692661498107
34.0,0.007302340112087846,-0.555010296422623,-0.17346327079861773,0.2242070889835447,9.354207310022092,2.851207506422903,-0.061728062993828575,-0.01722120161296106,-0.004149265527980877,0.33074822291439654,0.1434141086304889,0.6859578075362187,0.6313123247202705,-1.512956583032421,-1.2931515691327113,-2.2039864811242795,-21.440250911712646,-33.620626564025876,12.806250534057618,200.82070328810002,none,false,false,false,,,,,,,,,0.23150001157088862,8.79865483676686,2.6772354350370517,-29.908126258850096,-49.83862747192383,65.44687797546386,-0.06028835657144002,-0.02146887254225565,-0.005769606862290233,0.23150001157088862,8.79865483676686,2.6772354350370517
35.0,0.10988687063650329,-0.011389302108252402,-0.4128011094203385,-0.025094297083468168,9.36604892617405,2.8092264715987856,-0.056206187823473815,0.05612178273167055,0.012477103611546577,0.32495158438635346,0.15284671309855904,0.6847464235702364,0.6331250702980722,-1.518960224519862,-1.315184200164115,-2.2145901717761958,-23.320875968933105,-33.61912666320801,13.543875617980957,201.89027807661125,,,,,,,,,,,,,0.08477376399003891,9.35415489838855,2.3959248715107986,-31.78687629699707,-49.8367520904541,66.18787826538086,-0.054752226789841554,0.051866090257126504,0.01086386132727165,0.08477376399003891,9.35415489838855,2.3959248715107986
36.0,0.09084533549162864,0.24514931807810864,-0.15332898792653982,0.3039240787488104,9.413869168498728,2.6322741673724486,0.010686880973453569,0.027174629483113784,-0.033642572857955896,0.3409623155499449,0.18262354572220604,0.6685735854772058,0.6346709173504669,-1.3994530533800031,-1.3400720983448595,-2.1634942517422213,-24.373501052856444,-33.76125137329102,15.864000701904297,205.15751453941618,none,false,false,false,,,,,,,,,0.4005764892927426,9.669340157041363,2.467076597406584,-32.84250156402588,-49.97850227355957,68.5068783569336,0.012129949599430702,0.022921657885913507,-0.03525853931608767,0.39457279096108555,9.658512327930715,2.4784144837372373
37.0,0.1416298199479934,0.04047643579542637,-0.16798328924458475,0.32209745098371056,9.429575815200806,2.584267073869705,-0.07603886084963042,-0.0835673266809692,0.006345421195694125,0.3350721397995949,0.179665709733963,0.6663862907886505,0.6403560376167298,-1.3586702120304108,-1.3468300604820251,-2.1092326176166534,-25.530376167297362,-33.8092512512207,16.240875606536864,205.65095611231212,,,,,,,,,,,,,0.45848170277837774,9.448999442676506,2.4032496120596285,-33.998251571655274,-50.02687759399414,68.88412780761719,-0.07477387521881611,-0.08949737399816513,0.00781687575392425,0.46354651981033385,9.469519934654237,2.415832607857883
38.0,0.06490173676523708,-0.43693995537857216,-0.18872732090234173,0.08320675522782932,9.449862302518358,2.484747022974725,0.03236507259163202,-0.05734558627192004,-0.017463847780234965,0.33083106957229913,0.18316304888211044,0.6721653599365085,0.6356126070022583,-1.4398953131600922,-1.3549050782241074,-2.1888970650878607,-25.33537601470947,-33.99300186157227,16.859250717163086,206.35400022707407,none,false,false,false,,,,,,,,,0.14809264991359383,9.012415151970059,2.2955927626668093,-33.801376495361325,-50.21062759399414,69.5025032043457,0.03379803890015418,-0.061599999533820095,-0.019082843631907712,0.14809264991359383,9.012415151970059,2.2955927626668093
39.0,0.11618239452167976,-0.24002782932233693,-0.43441715573034445,0.08571663384537885,9.444108141530858,2.5418922783124565,0.042006930234924994,-0.040486261677365784,-0.04749195607342195,0.3301501167882787,0.17469618801433262,0.6770477336232025,0.6334405860098282,-1.48287566817633,-1.3414001936959747,-2.2182921112173855,-25.393876152038573,-34.525126724243165,16.423875675201415,205.4046962925098,,,,,,,,,,,,,0.201787137540546,9.203614301020556,2.1069520849476358,-33.86100166320801,-50.74200248718262,69.06712829589844,0.04345136067581059,-0.04473651041931445,-0.04910655903842042,0.201787137540546,9.203614301020556,2.1069520849476358
40.0,0.04707386149276121,0.05632007625136597,-0.19702170502997057,-0.05710544220774489,9.309994267482384,2.9912409642163444,0.007065072641981875,0.04064742617272571,0.012520588117231633,0.34727562671782924,0.1670023817934242,0.6833801497431362,0.6189187823557386,-1.5374042345028298,-1.297949281393313,-2.289711353825588,-24.060750885009767,-35.37487640380859,15.058875541687012,203.0439197569993,none,false,false,false,,,,,,,,,-0.009979414023166778,9.36580924426808,2.79372955226869,-32.52862621307373,-51.591377105712894,67.70175308227539,0.008508822971991464,0.03639975527538827,0.010902941190436775,-0.009979414023166778,9.36580924426808,2.79372955226869
41.0,0.003842602311034161,0.08474418688749913,-0.20714396681857877,0.06907307859602393,9.370404234026918,2.7660014322488613,0.014893562602118986,0.1179042073095789,0.018094182586168298,0.3402866033634337,0.16759752415784515,0.6804235925768861,0.6258630764366376,-1.508774752664094,-1.3134047052647808,-2.2504680864881763,-23.994751052856444,-33.8025016784668,15.660750694274903,204.8253792243189,,,,,,,,,,,,,0.07303366654248226,9.454651936446085,2.558437261841085,-32.461501350402834,-50.01975265502929,68.30437789916992,0.01632165942009133,0.11365259938532173,0.016487746757667253,0.07303366654248226,9.454651936446085,2.558437261841085
42.0,-0.05669433349633918,-0.07736831239547909,-0.06949920717663333,0.19118798057096165,9.382628375408697,2.77297029541988,-0.007980392200360988,0.037003675904855426,0.024508702075656724,0.3545763028018615,0.18771573360644134,0.6731855980321473,0.6202548607891681,-1.4807042853505004,-1.321644238397187,-2.2747341324301327,-23.39362594604492,-34.15012664794922,16.726125640869142,206.07225143599604,none,false,false,false,,,,,,,,,0.13448824195702577,9.304760764626895,2.7029339603933633,-31.862251205444338,-50.36662719726562,69.36787780761719,-0.0065299023591055,0.03274791768532904,0.02289240175912924,0.13448824195702577,9.304760764626895,2.7029339603933633
43.0,-0.004610534420808648,-0.546669480838066,-0.26667572460183414,0.007665138612708796,9.41391401951856,2.676234030487514,-0.0014798262636038927,-0.01809690578259749,0.0037111387920040306,0.3450795612712898,0.17433458404375776,0.6835817263858153,0.6183989750276698,-1.5571439915364331,-1.3109887460670848,-2.316342814133899,-22.825875930786133,-35.63962646484375,15.253875560760498,203.15604010068665,,,,,,,,,,,,,0.0031425746913888667,8.866800440420018,2.4090624888344565,-31.293376388549806,-51.856127166748045,67.89900299072265,-3.1311784197788424E-5,-0.022353960505437732,0.0020951724353034306,0.0031425746913888667,8.866800440420018,2.4090624888344565
44.0,0.11911479176898651,-0.0027389214465431137,-0.38555249047246487,0.06526009887103083,9.40764357061947,2.659507396174412,-0.05931102933234298,-0.033133457871336564,0.002674510063347863,0.32865764726610747,0.15736423586221301,0.6871468506607354,0.6272852946730221,-1.5558563973389419,-1.313027792117175,-2.2642369550817154,-24.54825080871582,-35.2293766784668,13.260000514984132,200.57368780824964,none,false,false,false,,,,,,,,,0.18431177417583325,9.404375431584377,2.2734795061542705,-33.01725116729736,-51.44737716674805,65.9040030670166,-0.05786862758937858,-0.03738921573933433,0.0010662987125197461,0.18431177417583325,9.404375431584377,2.2734795061542705
45.0,0.15361667340298615,0.25798931603532027,-0.20464627112787548,0.04249802930280566,9.3895793858141,2.7246500572355665,-0.012547896944429024,-0.08171175398614884,-0.044609900038357415,0.3194387785278925,0.15198270260992616,0.6872340369932722,0.6328300509122339,-1.5452175706920057,-1.3206474485963877,-2.2312150497247676,-25.140001106262208,-34.35825149536133,13.260375556945801,200.99038732270233,,,,,,,,,,,,,0.1960024832941518,9.647082649835266,2.519520416118131,-33.60937633514404,-50.57512725830078,65.90287788391113,-0.011110272272351649,-0.0859579199897402,-0.046220420486302954,0.1960024832941518,9.647082649835266,2.519520416118131
46.0,0.0719510777921909,-0.013789853501115359,-0.1084133032618054,0.013906040648911513,9.434820717456294,2.5911405437132893,-0.03391666653766936,0.04507034262368346,0.013376592142580478,0.32251276426455555,0.1624467951409957,0.6857235466732698,0.6312670029845893,-1.549671709537506,-1.330478735998565,-2.255322203916662,-25.01362594604492,-33.16162658691406,14.534250679016113,203.6293055006957,none,false,false,false,,,,,,,,,0.08587794235962279,9.420513737435435,2.4822015896731733,-33.48375156402588,-49.377752227783205,67.17750305175781,-0.032481005305753034,0.040814584061759064,0.011764337066743596,0.08587794235962279,9.420513737435435,2.4822015896731733
47.0,0.06943685098523551,-0.3969568546566338,-0.11676154619124303,0.001843238041948269,9.505455441994242,2.3128015688150234,0.014786014448630043,-0.02755309324619351,0.0010931940269794794,0.3335759595479115,0.18871414041755222,0.6785798031504792,0.6260952365280378,-1.5401063590946764,-1.3519428567130967,-2.30168351560536,-24.422625961303712,-31.693126258850096,16.375125675201417,207.2849879920473,,,,,,,,,,,,,0.07132426153241407,9.108030092598188,2.1954966357143797,-32.89237632751465,-47.911126708984376,69.01612777709961,0.016224998464383703,-0.031804702175541384,-5.227725233624477E-4,0.07132426153241407,9.108030092598188,2.1954966357143797
48.0,0.0788075976922889,-0.3069615961582053,-0.14414146026669472,-0.15428324342778355,9.516661428937725,2.2519750069169437,-0.0028753671612517504,-0.050494853169748596,-0.03715870052338669,0.3284613338171267,0.19358307955896153,0.6835734440999872,0.6218163464583603,-1.626543854965883,-1.3596675431027132,-2.38741103106854,-25.57875114440918,-32.70187648773194,17.072625713348387,207.56985899540712,none,false,false,false,,,,,,,,,-0.07543824160215902,9.209194562014412,2.1073809851910554,-34.047376556396486,-48.91762763977051,69.71737777709961,-0.0014370094948247367,-0.054739827664532496,-0.038777696635281925,-0.07543824160215902,9.209194562014412,2.1073809851910554
49.0,0.028818110214779154,0.05505452503450215,-0.33499482138082387,-0.14635135180316866,9.416434240341186,2.6236152970790863,0.05401549960486591,0.014832124686799944,-0.008518123608082533,0.3434281614091661,0.1948883342321473,0.6815846712902339,0.6151763941302444,-1.603836264273133,-1.3396610214252664,-2.390795440384836,-24.48000087738037,-34.18950141906738,16.037625579833986,205.07547966260188,,,,,,,,,,,,,-0.1174440087378025,9.471010928153992,2.2881811122596263,-32.94937648773193,-50.404877471923825,68.67900253295899,0.057230556063880826,0.015209720756933845,-0.007636111413100452,-0.1174440087378025,9.471010928153992,2.2881811122596263
50.0,-0.056941677880126475,0.05118965405021228,-0.09791843450683005,-0.04343915787724066,9.387586948918361,2.742893760110818,0.024353676530368188,0.022234559826114598,0.004994484486387056,0.3428694395457997,0.17514034272993312,0.6869658243422415,0.6157339150999107,-1.595002249175427,-1.311946774230284,-2.35194619029176,-22.18762596130371,-33.26512645721436,16.270875663757323,206.00916214841044,none,false,false,false,,,,,,,,,-0.10029118333705793,9.438291638505225,2.6445310080752655,-30.656626167297365,-49.48275184631348,68.91450317382812,0.025801470676692678,0.017984192229478675,0.00338627401666314,-0.10029118333705793,9.438291638505225,2.6445310080752655
51.0,-0.02138873199046608,-0.13439114956075654,-0.014811409463850306,0.00504267638362031,9.424604724435245,2.604037435615764,0.005669852627404765,0.09900269687504452,0.005760171300019412,0.34345690204816703,0.17669109722562865,0.6845881985683068,0.617073294578814,-1.580778951738395,-1.3151563955288308,-2.341088147724376,-21.49387565612793,-32.12850147247315,15.062625637054444,205.09238033271194,,,,,,,,,,,,,-0.01633382154920814,9.289744564131194,2.5887236519187105,-29.959126358032226,-48.34687713623047,67.70587799072266,0.007112255593871369,0.09474558711015418,0.004143872795918701,-0.01633382154920814,9.289744564131194,2.5887236519187105
52.0,0.08579955550946876,-0.5057710704421348,-0.33419325827888335,0.05216488236501481,9.442615811187443,2.5705570041543186,-0.033450618552246895,-0.02198094020293343,0.00425569320300428,0.33269603978289236,0.1652831091444091,0.6857926615393988,0.6250428846566984,-1.5611178532685384,-1.3175476482599089,-2.2872161275089375,-22.28212589263916,-30.544876251220703,15.260250625610352,206.48428191705548,none,false,false,false,,,,,,,,,0.1379673342026844,8.936326196878264,2.235868920544439,-30.749251289367677,-46.762501373291016,67.90312797546386,-0.03201844022692282,-0.026224382572097353,0.002637005494077607,0.1379673342026844,8.936326196878264,2.235868920544439
53.0,0.08188206736368182,-0.03595200345358428,-0.31862408174749685,-0.05473193160016272,9.474400015438304,2.4243214913443025,-0.05688455850159859,0.008623407897995967,0.004022549600431732,0.3277257490976184,0.18378738226259456,0.6846117342219633,0.6236597328793769,-1.6005867357347525,-1.3478413107348424,-2.346059203147888,-21.830625915527342,-30.260251121520994,17.81737575531006,210.47491124269868,,,,,,,,,,,,,0.02713823494131622,9.437979880501242,2.105160385078075,-30.298126373291016,-46.477126388549806,70.46137847900391,-0.05545428895172389,0.004374388897535848,0.002400857985348386,0.02713823494131622,9.437979880501242,2.105160385078075
54.0,0.1156451022529071,0.21784704394343465,-0.339981536021327,0.0016954665344282246,9.405849806152949,2.6972211139036877,0.020981682745721375,-0.023048267649062495,-0.01085160838642923,0.3394087018943069,0.1720775548774417,0.6845592673462216,0.6208522980756098,-1.5629537058348704,-1.3163934438535483,-2.3098124041415677,-21.317250738143922,-31.132876205444337,15.89775068283081,207.01182444188638,none,false,false,false,,,,,,,,,0.11725841829608573,9.623165815183432,2.3567689279518507,-29.786251020431518,-47.34975196838379,68.5425032043457,0.022415222134441137,-0.027305322081440746,-0.012471657380055968,0.11725841829608573,9.623165815183432,2.3567689279518507
55.0,0.18315517716109753,0.12251415363706575,-0.06709096781300879,-0.02943400056192688,9.406655797771379,2.68775198506374,-0.044509558417998696,-0.013679903621474901,0.019449509639183387,0.3465043323881486,0.1873560197213117,0.6793205480949551,0.6180574373871672,-1.5501198663431055,-1.3280512433426053,-2.330915874125911,-21.987750778198244,-32.45700141906738,15.323250675201416,205.23493559504982,,,,,,,,,,,,,0.1597294200339592,9.544918074327356,2.6088030690729034,-30.45787643432617,-48.67500221252441,67.96762817382813,-0.04306446082488287,-0.017937011067189423,0.0178264696059712,0.1597294200339592,9.544918074327356,2.6088030690729034
56.0,0.12769116137176753,-0.49971589326858523,-0.24715893264859914,-0.06277973002230283,9.41185133934021,2.652860003709793,0.01284524870570749,-0.10309474715963006,-0.054034749842248854,0.35009417116642,0.19374408081173897,0.6796477115154267,0.6133973181247712,-1.573012008666992,-1.3289277255535126,-2.3693154406547547,-22.032750930786133,-32.055376586914065,14.661750679016114,204.58680425227678,none,false,false,false,,,,,,,,,0.05685000125281882,8.934142986146531,2.4241575480687736,-30.50025131225586,-48.273376655578616,67.30537796020508,0.014283499089069665,-0.10734487334266304,-0.05564487434923649,0.0648885016515851,8.911633906364441,2.4051496213674546
57.0,0.14026737394149177,-0.28015636944887684,-0.3781874850963005,-0.03945763638316124,9.417088620802936,2.6231055470073925,-0.013324020174788493,0.023918260098891517,-0.02395061212683133,0.347945489135443,0.18881183351371802,0.6797913733650657,0.6165335616644692,-1.557689306782741,-1.3275426859949149,-2.3428963796765196,-24.55612606048584,-31.633876457214356,15.267000675201416,205.75552594959737,,,,,,,,,,,,,0.10081912450236725,9.136440127503638,2.2443589286184777,-33.02662651062012,-47.85150169372559,67.91250259399413,-0.01364925733334062,0.017507423771231777,-0.02637957855321393,0.10081912450236725,9.136440127503638,2.2443589286184777
58.0,0.03202378339742744,0.06782526958106767,-0.26024641583000524,-0.13362995013225787,9.406975519539106,2.6737873483412335,0.05705160892448655,0.013921533420792605,0.0020393565121927474,0.35245590988952336,0.19367262352221082,0.6822542855055025,0.6096754215731479,-1.6075063684199116,-1.3222986152856657,-2.4074037051436923,-23.54175090789795,-33.35062648773194,16.28775064468384,206.01162789435668,none,false,false,false,,,,,,,,,-0.10149505738132071,9.474304874344627,2.4130144715309143,-32.00962654113769,-49.567502365112304,68.93025344848633,0.058505568966859635,0.009668561749824204,4.410881290931513E-4,-0.10149505738132071,9.474304874344627,2.4130144715309143
59.0,-0.03213756088620821,0.13617754773026808,-0.12220690906157389,-0.054699099153010904,9.319476520313936,2.9580444752001296,0.019068014639082784,0.0602074752917842,0.008925367457171282,0.3682151942276487,0.18504073660747677,0.6858793789265203,0.5987721745874367,-1.6093654667629915,-1.2821001094930313,-2.422706683476766,-23.076000785827638,-35.38200164794922,14.413875617980956,202.1252722352104,,,,,,,,,,,,,-0.08671324417981155,9.455135752173032,2.8352927737960627,-31.54650131225586,-51.600377502441404,67.05750289916992,0.02050098043172529,0.05595306364600273,0.007315808304530733,-0.08671324417981155,9.455135752173032,2.8352927737960627
60.0,-0.0275260000996808,-0.16535346578843524,-0.001603424106494035,-0.014792189195678375,9.379817056183768,2.776563061345922,0.016448267846193056,0.08966769801342103,0.02985792069022756,0.35071003820636487,0.17491844562020634,0.6843675593338391,0.6141630417049522,-1.566534435394967,-1.301838779213405,-2.3358366394987202,-24.165375900268554,-34.363501739501956,14.669250602722167,203.103195830318,none,false,false,false,,,,,,,,,-0.0422762392761905,9.21399696746675,2.774487738488334,-32.63362632751465,-50.57887741088867,67.31400299072266,0.018948875134810805,0.08527887566946447,0.02919537471141666,-0.0422762392761905,9.21399696746675,2.774487738488334
61.0,0.032544069250326345,-0.4858649824146587,-0.21533009742783144,0.016239276248039586,9.461800546929387,2.477461889238641,-0.06687218175434015,-0.010985172591080852,-0.016125245686328293,0.3493496123516914,0.18388270269526114,0.6839681037581793,0.6125708098458772,-1.591290538853938,-1.314769443899098,-2.3717231372795484,-23.757375984191896,-32.91675151824951,15.311625652313232,204.93870079493485,,,,,,,,,,,,,0.04580588688087814,8.962173966800465,2.24347510188818,-32.22487628936768,-49.13325225830078,67.95525299072266,-0.06700061772498164,-0.016924753822017424,-0.015591954572661089,0.04889257906908446,8.975422717557095,2.26164812247942
62.0,0.102821841748376,0.027193305386912704,-0.31999670824792126,-0.0851405442094126,9.409867683259568,2.6636293359322125,-0.035499504633653575,-0.013440965504228774,-4.887368557698066E-4,0.3412767518865,0.17644791128021656,0.6895664847723328,0.6127461218597865,-1.638142465364815,-1.3115522554605314,-2.3948988725643345,-23.466376037597655,-32.957626495361325,15.391125717163085,204.94150717589034,none,false,false,false,,,,,,,,,0.017734156110056555,9.436519745552895,2.3430847661329968,-31.930501403808595,-49.17450241088867,68.0351284790039,-0.03405507362106502,-0.017691211442988696,-0.002100618519257791,0.017734156110056555,9.436519745552895,2.3430847661329968
63.0,0.12204069461600453,0.23415233818905465,-0.305446335059755,-0.0014428717030586639,9.34910312353396,2.890916754217709,0.03770600483460607,-0.06931482841187686,-0.013131250380812323,0.3494255583660275,0.17016826438553193,0.686798983929204,0.613200892420376,-1.5824680480302549,-1.2954596304426007,-2.342916914061004,-23.568375816345213,-35.07900177001953,14.568750667572022,202.5124837103801,,,,,,,,,,,,,0.12057206492104075,9.582718091852525,2.584960419173334,-32.037376403808594,-51.29587730407715,67.21350280761719,0.03914840695649093,-0.07357058801925649,-0.014752940503040365,0.12057206492104075,9.582718091852525,2.584960419173334
64.0,0.06574458512708102,0.0464722231528399,-0.1095443748970433,-0.021465297119857948,9.268906772726833,3.122676358364596,-0.039074505121437925,4.819322119254877E-4,-0.0017684397453645079,0.35434250607348905,0.15116855546389477,0.692011581199004,0.6093865237613716,-1.5909238982908795,-1.2588369610285994,-2.33186136850036,-23.798625984191894,-37.18237678527832,12.10237548828125,197.96884508515043,none,false,false,false,,,,,,,,,0.044273766721276066,9.314854942926086,3.0126343033101297,-32.266876220703125,-53.39887748718262,64.74750259399414,-0.037631435614853805,-0.0037655941865379267,-0.003381683947610678,0.044273766721276066,9.314854942926086,3.0126343033101297
65.0,0.07765764464615005,-0.31257306833723836,-0.07946676268509709,-0.002252623418087859,9.369630001559116,2.7910133623840787,0.0031207104158752106,-0.0433731611964165,-0.006179411087513846,0.35686750341169904,0.1789799202786814,0.6842332677085801,0.6090885536505444,-1.579984144409104,-1.2962667056829622,-2.365592347513331,-22.414875793457032,-37.6511264038086,15.091500549316406,201.8088283548116,,,,,,,,,,,,,0.08449853284686219,9.040044522752948,2.7034148369349684,-30.881251373291015,-53.86837730407715,67.73512863159179,0.006333168937206858,-0.04183812038327503,-0.003828217833312136,0.07548416132974152,9.056569713177067,2.71104221119739
66.0,0.11239932151625444,-0.3582661159190477,-0.28671693755770283,-0.24134730421664083,9.38954465529498,2.6934608595044005,-0.022826347372257243,-0.021187133945561216,-0.051310416890819575,0.35781776379136476,0.19363762745085886,0.6869366402719536,0.6013007245811761,-1.6471993327140808,-1.3068897046294867,-2.456210395869087,-20.66212574005127,-38.27512657165527,14.421000690460206,200.62186202732428,none,false,false,false,,,,,,,,,-0.12881765114691326,9.030794550390805,2.4063133540398933,-29.130001068115234,-54.493127059936526,67.06537841796874,-0.02138799007105477,-0.025440196483852526,-0.05292941102593699,-0.12881765114691326,9.030794550390805,2.4063133540398933
67.0,0.03757584194588189,-0.03741832284053954,-0.30866175026881815,-0.10058913860553045,9.413010191209246,2.630390010257759,0.015491212377011185,0.014592698517043402,-0.01831745063093039,0.3588231987882369,0.1983640972930606,0.6807411200929396,0.60612422640961,-1.6025481684373157,-1.3192805169832589,-2.4198185736590094,-20.940750770568847,-34.957876434326174,15.894750633239745,204.42621462134085,,,,,,,,,,,,,-0.06291980379823559,9.375098497560709,2.3212233770749355,-29.409001083374022,-51.17512718200683,68.53875259399415,0.016930199080690888,0.010341087337767724,-0.01993069244954403,-0.06291980379823559,9.375098497560709,2.3212233770749355
68.0,7.798600378081057E-5,0.20438082163751708,-0.24640483536538393,0.04333913790897521,9.37204398360907,2.762253024998833,0.06967340654912679,0.044451593471617964,0.001374999773414696,0.3654467276498383,0.18925715632298412,0.6784971952438354,0.6073175949208877,-1.55348021142623,-1.3006516566463546,-2.368134479896695,-21.61875087738037,-35.14200134277344,15.25425064086914,203.450500062391,none,false,false,false,,,,,,,,,0.04340588536990039,9.575954881368899,2.5154162979155195,-30.08775131225586,-51.35812744140625,67.89712799072265,0.06737908348902175,0.04038279614697146,3.4715323755056554E-4,0.04340588536990039,9.575954881368899,2.5154162979155195
69.0,-0.033039538329467176,-0.07596105493605138,0.056866057488077784,-8.808920219872552E-4,9.349090377883156,2.871050737871982,0.029578999159857632,0.07880537485703826,0.01015299990773201,0.37015855400869163,0.1794107730435853,0.6827231197073909,0.6031269525537396,-1.564546252241229,-1.27685020465662,-2.3724003569914562,-21.8441259765625,-36.19012680053711,13.03237554550171,199.7960444871861,,,,,,,,,,,,,-0.03413168656741186,9.247748455198684,2.9255852905830535,-30.310501403808594,-52.40475227355957,65.67525344848633,0.0321123749939817,0.07586596405945055,0.010274380846594525,-0.03026250331196934,9.271956434249878,2.929120642542839
70.0,-8.209715414719254E-4,-0.39300178612271947,-0.11418240037564115,0.004474264775019358,9.332264572966332,2.9219458360298005,-0.004405391457326272,0.01592708222896737,0.01901544105060691,0.36874620382692297,0.17586523455147648,0.6851109640271056,0.6023523246540743,-1.5773064026645585,-1.2721234127586962,-2.3777410049064485,-23.58300090789795,-36.62587661743164,11.484750442504883,197.39710786478537,none,false,false,false,,,,,,,,,0.003686765820591473,8.938757756177116,2.807213359311515,-32.049376335144046,-52.843502349853516,64.12762771606445,-0.0029589467334981056,0.011669974481942607,0.017412622066616427,0.003686765820591473,8.938757756177116,2.807213359311515
71.0,0.08130952371468786,-0.27905358758635157,-0.3399000566010133,-0.09131666233228279,9.301381507722459,3.0199417241729134,-0.07515123730875772,-0.025105321166649607,0.02877153365845137,0.3702496343319959,0.17072643501923815,0.6919374377420633,0.5949438131681763,-1.632589056940362,-1.2539950963294153,-2.4285290312058856,-24.141375923156737,-36.88275146484375,11.113875465393066,196.72795074317196,,,,,,,,,,,,,-0.010012873937145318,9.02182914242886,2.6795273433522424,-32.61000106811523,-53.09925231933594,63.75862777709961,-0.07370680674338842,-0.02935692958423112,0.02715148492762358,-0.010012873937145318,9.02182914242886,2.6795273433522424
72.0,-0.044346656924223196,0.11131951682653059,-0.3055971847463618,-0.142956049286523,9.359122818591548,2.8260697173137292,-0.014682842938996413,0.06901960558824095,-0.0338101719834787,0.36494599253523585,0.18527012712815227,0.6906731385810703,0.5954952333487716,-1.6546002182306028,-1.2815287627425849,-2.463091015815735,-23.93850082397461,-36.06375137329101,14.496000537872314,201.8592382570426,none,false,false,false,,,,,,,,,-0.18725736446532548,9.469996106390859,2.519938356425686,-32.407126350402834,-52.28175216674805,67.13962829589843,-0.013252572832154292,0.06476923708310899,-0.03544129837560011,-0.18725736446532548,9.469996106390859,2.519938356425686
73.0,0.174763544787662,0.28003044724279996,-0.26481454465353843,0.06997179126108785,9.334919098580238,2.90695051155468,-0.016125618895091634,-0.08970309225473516,-0.025189728171813607,0.37074535494983785,0.1927626727536173,0.6752539253470922,0.6065542851344193,-1.523375893583392,-1.2994032944783125,-2.351886841330198,-22.01475082397461,-35.15287658691406,18.477750663757323,207.74267405885644,,,,,,,,,,,,,0.2446203047621737,9.614529680497576,2.641676856167983,-30.48337615966797,-51.369752426147464,71.12250289916992,-0.014682549651306455,-0.09395334019445546,-0.02681113910022201,0.2446203047621737,9.614529680497576,2.641676856167983
74.0,0.083770730961483,-0.044801210154696264,-0.04672427722575641,0.030559127965923583,9.333297993877146,2.9301854383827437,-0.02500866308328834,0.01918873761199636,0.023290594634000617,0.36691376065263653,0.1734846240223044,0.6859570629525893,0.6033415245537711,-1.5805249662682561,-1.2716563940048218,-2.3743153916727198,-18.91312587738037,-33.50925132751465,14.18437557220459,202.8002937678324,none,false,false,false,,,,,,,,,0.11430891395297528,9.288010838008162,2.8829006262049814,-27.382501220703126,-49.727627487182616,66.8287525177002,-0.02356287118711389,0.014934407279706827,0.021666460080385797,0.11430891395297528,9.288010838008162,2.8829006262049814
75.0,0.05083768344530375,-0.42722624311647794,-0.13864777958260313,0.01913845592574908,9.3501083449562,2.842347745848174,-0.0020597779772954412,-0.06247945572019066,-0.04083750035964174,0.37542853408520765,0.18853454468864025,0.6768321412624699,0.6035911104466656,-1.528551723697398,-1.2853368827612093,-2.358394955644513,-21.30675079345703,-31.075126190185546,13.306875591278077,203.1603987588358,,,,,,,,,,,,,0.06998317215665437,8.922349452972412,2.7032466572110017,-29.775001373291015,-47.29237655639648,65.95200286865234,-6.221543794663826E-4,-0.06672970297755582,-0.042439851001605834,0.06998317215665437,8.922349452972412,2.7032466572110017
76.0,0.13512799117997215,-0.31034254410541523,-0.29586220338173647,-0.0020425500423537895,9.373474504433426,2.7545761208908233,-0.004351470308999221,-0.027669852101883174,-0.045176838465290615,0.36978144125611173,0.1860452457970264,0.6795646174281251,0.6047612165703493,-1.5497766289056516,-1.2885769909503413,-2.3667572432873296,-24.191250762939454,-31.641376342773437,13.951500549316407,203.81149341823985,none,false,false,false,,,,,,,,,0.13307500658922045,9.062596012564267,2.458285396297773,-32.65725124359131,-47.85750175476074,66.59475296020508,-0.00291985162880783,-0.031912132892209816,-0.046798529838412706,0.13307500658922045,9.062596012564267,2.458285396297773
77.0,0.014664726700866595,0.11645393285900354,-0.14519384182989598,0.06482307936553613,9.491066734389504,2.3596216038902207,-0.03279442931202674,0.004208042549135366,-0.014123021002563805,0.3626947897672653,0.20517162948846818,0.6714019119739533,0.611600946187973,-1.5214865183830262,-1.3314049541950226,-2.3549237060546875,-25.01062602996826,-33.12937641143799,16.775250759124756,206.8036488328189,,,,,,,,,,,,,0.0871975270773072,9.586206374782147,2.2157332747990246,-33.47850154876709,-49.344752349853515,69.41925308227539,-0.029878750303760172,0.005691122841089964,-0.013639999367296696,0.0871975270773072,9.586206374782147,2.2157332747990246
78.0,-0.014938764687993919,0.09606828160273533,-0.15998158841530846,0.17837535416794137,9.364961109909357,2.794886785395005,0.09179203430026331,0.10362512184599158,0.034170098411028874,0.3690784313515121,0.19091990268697925,0.6763976403311187,0.6066284495241502,-1.5270383334627338,-1.2983384506375182,-2.3502404876783785,-24.58537582397461,-34.32225120544434,16.207875690460206,205.26196896360537,none,false,false,false,,,,,,,,,0.16345147653391548,9.460510754117779,2.6343986355498727,-33.05512630462646,-50.5383772277832,68.8500032043457,0.09324117686928195,0.09937610167681295,0.032555147179165016,0.16345147653391548,9.460510754117779,2.6343986355498727
79.0,-0.02557122690423327,-0.11086490351964931,-0.07370485269492215,0.1663804366795051,9.429468107695627,2.566423037264607,0.01816905854214536,0.06899504768339419,0.02124442946682177,0.3657693845210689,0.19561906055648728,0.673033092871751,0.6114402826469724,-1.507605263502291,-1.313648770351221,-2.3316965126755216,-23.914500999450684,-34.0987515258789,16.780125751495362,206.1645569619892,,,,,,,,,,,,,0.14077723351777485,9.318061337612644,2.492236748485282,-32.38275150299072,-50.31750221252442,69.42375305175781,0.019616213424297254,0.0647475229585451,0.01963118825679516,0.14077723351777485,9.318061337612644,2.492236748485282
80.0,0.00422299129076966,-0.4788747262209654,-0.18187050600674484,0.07580457518331356,9.455640037461082,2.498478353613674,-0.03439133730486478,0.0087509887790916,-0.018013860168175237,0.369623334100931,0.20422454502913032,0.67316073179245,0.6063116251832188,-1.5354446078291033,-1.3176025907592017,-2.378686749108947,-23.476875839233397,-33.74475128173828,16.615875663757325,206.20543490047527,none,false,false,false,,,,,,,,,0.07730441386628822,8.975773951586556,2.305295682831795,-31.94512638092041,-49.96087730407715,69.25837844848633,-0.03295507396359255,0.004495296991513212,-0.01963391044813365,0.0800896061925531,8.976287058084319,2.316120392440053
81.0,0.0826621204003747,-0.12552921779656617,-0.3213917236074363,0.2725657919965832,9.437020651184687,2.5591066757051073,-0.005041213115990752,-0.0043632435649264565,0.02134517239554241,0.3751399298705677,0.19956884230717575,0.6719999189424043,0.6058706511365305,-1.5104090990406451,-1.3034386906293358,-2.3557334394738225,-23.666250762939452,-33.519376525878904,16.368750762939452,206.01803025223325,,,,,,,,,,,,,0.35509754130432364,9.310999450117055,2.2372560443743916,-32.13412628173828,-49.73587738037109,69.01275299072266,-0.0036035894259515374,-0.00861757479626501,0.0197319300605519,0.35509754130432364,9.310999450117055,2.2372560443743916
82.0,-0.08787867461568584,0.03810728373754697,-0.21260115118039882,0.061086695336545,9.394331501979455,2.685375605143753,-0.06934987735824988,0.07924852942518305,0.02237475502724741,0.3855933719405941,0.20876472487169154,0.6740516751420265,0.5934613247712454,-1.5629893132284576,-1.2944204585224974,-2.4399538998510324,-21.70125068664551,-34.56937652587891,16.383375663757324,205.32948278905573,none,false,false,false,,,,,,,,,-0.0267411791536884,9.431897476607679,2.4723089400898006,-30.168751220703125,-50.78737739562988,69.02512832641601,-0.0679142147384803,0.07499681351542034,0.0207598049138837,-0.0267411791536884,9.431897476607679,2.4723089400898006
83.0,0.13212356805417905,0.21850556679362176,-0.37684795201993454,-0.03321537387319932,9.417893736970191,2.596203682469387,-0.04359963162820421,-0.09487634754794486,-0.039044608060708814,0.36846506917009164,0.21660532291029014,0.6734692354997,0.6014708251345391,-1.5839205162197936,-1.3319314835118312,-2.444476782106886,-22.246125717163086,-33.60675163269043,17.813625621795655,207.89543446476281,,,,,,,,,,,,,0.09882206381663826,9.635885757558485,2.218828042037785,-30.717376098632812,-49.82362716674805,70.4598779296875,-0.042145097578017446,-0.09912941104951589,-0.04065955749384182,0.09882206381663826,9.635885757558485,2.218828042037785
84.0,0.13043814825433211,-0.008220639905090085,-0.1503957822575409,0.051453028989974225,9.500042122189361,2.310213392323787,-0.026203960360092395,-0.031443934781605946,0.00696621249697291,0.35516992830994104,0.20644304038274405,0.6745064878227687,0.6121637219249612,-1.5624016145668407,-1.3410773938245113,-2.385576588092464,-24.04575096130371,-33.691876602172854,17.797875862121582,207.81454973257263,none,false,false,false,,,,,,,,,0.18184604895955855,9.491323301107576,2.159371879431281,-32.51400131225586,-49.908752365112306,70.44262802124024,-0.02475680661673593,-0.035692821556499395,0.005348885809947359,0.18184604895955855,9.491323301107576,2.159371879431281
85.0,0.045904394193534176,-0.21216654193167592,-0.0031279356563555113,0.01577510704815972,9.491394585254145,2.320038956754348,0.022270955825589744,-0.03878578346441774,-0.03533480363879718,0.3652307733016856,0.21335595101118088,0.6712082472502017,0.6076807496594447,-1.5476133776646035,-1.3362834745762395,-2.397395975449506,-23.740875816345216,-33.84225158691406,17.979000701904297,207.95012087118465,,,,,,,,,,,,,0.06166911972504036,9.278725465138754,2.3164383574735883,-32.207251358032224,-50.059501953125,70.62225326538086,0.0237052699085325,-0.043038846988815306,-0.03695379873262901,0.06166911972504036,9.278725465138754,2.3164383574735883
86.0,0.1573052865794242,-0.5079929455377088,-0.42679794741296534,0.06353466230730462,9.468709539658953,2.4224290517297122,0.018347400881460692,-0.15974504547654697,-0.07920544467737327,0.3409299921281267,0.18774888155483963,0.6787699673435476,0.6208791077727138,-1.549548601159955,-1.3379831774400013,-2.3221875110475145,-26.0032511138916,-33.647251510620116,16.718250675201418,206.32150108400387,none,false,false,false,,,,,,,,,0.2208415940864989,8.960229613993427,1.9952317790801424,-34.47000183105469,-49.86412734985352,69.36262832641602,0.019791831626639802,-0.16399665735200933,-0.08081868815115921,0.2208415940864989,8.960229613993427,1.9952317790801424
87.0,0.023346705646391082,0.020671635806816174,-0.24272984185931729,-0.012463560323322229,9.50303181479959,2.2769037146194306,0.01665906789803914,0.10624975384231292,-0.00650428923066048,0.3417225594029707,0.1985807351621927,0.6784894700143852,0.6176307119575202,-1.5925977884554396,-1.34913483320498,-2.3825387533973243,-25.2510009765625,-33.83287651062012,17.56162576675415,207.30541254452567,,,,,,,,,,,,,0.010920588493201077,9.523204859565286,2.0337486270194254,-33.717751579284666,-50.047877349853515,70.20487777709961,0.01809877404194398,0.10199669202534008,-0.0081151961440257,0.010920588493201077,9.523204859565286,2.0337486270194254
88.0,0.005417752637537104,0.14594897693299716,-0.19223699573021713,0.11825206953099131,9.371119282033185,2.7425841222895255,0.04918415802484839,0.0763478961376713,0.018962746744256208,0.36250009926238863,0.18230027624286047,0.6796578221982068,0.6098122939024821,-1.5409027290816355,-1.2958300774640377,-2.34053633944823,-25.753126220703123,-34.705126724243165,15.343875694274903,203.85653363478534,none,false,false,false,,,,,,,,,0.12364307632393176,9.516563311661825,2.5498649613507607,-34.22137657165527,-50.92237724304199,67.98787841796874,0.050620421619698555,0.07209901034020551,0.017330446197549896,0.12364307632393176,9.516563311661825,2.5498649613507607
89.0,-0.10756577339534666,0.008908631371370717,0.02328086208880824,0.1019471181994852,9.51723600836361,2.2214728815882814,-0.04541948468734821,0.12554558664195092,0.003998284579674695,0.34250281371322333,0.1998295773770295,0.6736832921411476,0.6218368329253852,-1.5272502817359626,-1.3550717889093886,-2.3202796660217584,-26.197126197814942,-34.935751571655274,18.639000759124755,207.99883336584492,,,,,,,,,,,,,-0.005592646579459018,9.52565047787685,2.244351571078832,-34.66275173187256,-51.15375221252442,71.28262741088867,-0.043982475617097,0.1212898288652593,0.0023765938913486166,-0.005592646579459018,9.52565047787685,2.244351571078832
90.0,0.007762188041158537,-0.37140528986802196,-0.31724444802592294,0.2652541569913599,9.415021084322788,2.619462721418626,0.08066893426590774,0.003897649369728152,0.01888787201006371,0.3708346453633639,0.21028858319957658,0.666003675744085,0.6113563067842238,-1.4630816266088202,-1.3293226697657368,-2.3170817252432947,-23.40037582397461,-36.32737640380859,19.38412582397461,208.10277950917737,none,false,false,false,,,,,,,,,0.2729361521329104,9.043149952841278,2.3017352605699606,-31.86937629699707,-52.543127365112305,72.02850311279298,0.08211200303020011,-3.6076679456942154E-4,0.017267821421201278,0.2729361521329104,9.043149952841278,2.3017352605699606
91.0,0.04665351951239156,-0.3103622640757,-0.26807633644955997,0.18734401968843076,9.446214909647026,2.5298484762509665,-0.06903173996354728,-0.013360416005347289,9.058827726060853E-4,0.369945910339262,0.20184435213313384,0.6761758239830241,0.6037396823658663,-1.5602011610479916,-1.310858521975723,-2.4005272037842693,-22.3650008392334,-37.200376205444336,17.024250717163085,204.58459173454634,,,,,,,,,,,,,0.23391765805290027,9.135375401552986,2.2612795210352132,-30.834001274108886,-53.418001861572264,69.66637725830078,-0.0675974267525781,-0.017606739571098897,-7.238974475173973E-4,0.23391765805290027,9.135375401552986,2.2612795210352132
92.0,0.06646307799411882,0.060261858940714653,-0.2728564696072942,0.14422788061201572,9.417904920578003,2.625912688970566,-0.00965631326734282,-0.02874566752943072,-0.013487252508207122,0.3672904345658746,0.19298068308594205,0.6753403579834665,0.6090127306409402,-1.5244474458222341,-1.3057954594640448,-2.3471811809162104,-22.727250938415526,-36.39412658691406,16.40475061416626,204.25865512835134,none,false,false,false,,,,,,,,,0.21511040660229944,9.478599977965402,2.3489139723305654,-31.192501373291016,-52.61212738037109,69.04762802124023,-0.008218687968236386,-0.03299455299955046,-0.015111385913805502,0.21511040660229944,9.478599977965402,2.3489139723305654
93.0,0.11502556142725795,0.23421753618386712,-0.13684375001357332,0.2137229305018883,9.448459379743822,2.5044663589779694,-0.00804034528313297,0.02193465380754211,0.009433045586810844,0.36346731563605883,0.20193036594013175,0.6690311479096366,0.6148412062390016,-1.479796293938514,-1.3277948115131644,-2.3095961065575628,-23.69700080871582,-35.09512649536133,16.665375690460206,205.40756694330676,,,,,,,,,,,,,0.32859506371366504,9.68217667022554,2.3671709051226624,-32.16525131225586,-51.31125205993652,69.30975296020507,-0.006595916649566429,0.0176816824869723,0.007818439541993166,0.32859506371366504,9.68217667022554,2.3671709051226624
94.0,0.17857714737811597,-0.02361443428562419,-0.24873085192745864,0.09320641597640691,9.320005152485159,2.9409809206972026,-0.04747698000530795,-0.08841658423258232,-0.017103095414430492,0.3757894062759853,0.19247598001862518,0.6748706314823415,0.6034289692888165,-1.5263898679525545,-1.2906015875315902,-2.3630455460878883,-24.141001014709474,-35.94825134277344,15.075750694274902,202.69336933142694,none,false,false,false,,,,,,,,,0.2716708046494808,9.295941518084838,2.6917887459887138,-32.60925132751465,-52.165502090454105,67.72012878417969,-0.04603935706678151,-0.09266138571028662,-0.01872178144513233,0.2716708046494808,9.295941518084838,2.6917887459887138
95.0,0.05548591981757211,-0.4710608364110536,-0.19302001348373912,0.053424726139329484,9.40776507059733,2.660816510518392,0.0479227930362172,-0.03451923892705464,-0.05216237632831668,0.36083105673976973,0.1902433528619654,0.6789923240156734,0.6094931866608414,-1.5597935576064914,-1.3088617780629326,-2.368054429690043,-24.820876083374024,-36.44587669372559,15.947250690460205,203.57716463587644,,,,,,,,,,,,,0.11482941656483009,8.919293067034554,2.4562089367240083,-33.28837650299072,-52.662752304077145,68.5920036315918,0.049830816759921535,-0.03444579062928067,-0.05114591575808602,0.11482941656483009,8.919293067034554,2.4562089367240083
96.0,0.1050836741371025,-0.18774203565156106,-0.3326495969760241,0.07794553471157456,9.360981176395228,2.817545011492059,0.012011509872788545,-0.019074381541202563,-0.026703589346886863,0.3668290813370506,0.18642768322831332,0.6786962464304254,0.6074041588471668,-1.5456956495152843,-1.295038916096829,-2.3582250269332734,-24.40987594604492,-36.449626693725584,15.320250606536865,202.75462668667416,none,false,false,false,,,,,,,,,0.1830638704065344,9.17275887668723,2.4844115164020275,-32.877751426696776,-52.66725234985351,67.9623777770996,0.013450494414140092,-0.023325989373249582,-0.02832091536999929,0.1830638704065344,9.17275887668723,2.4844115164020275
97.0,0.022652470162047036,0.12680084283883666,-0.1505253426182796,0.011187489672938325,9.375330541648117,2.7742337011823466,-0.010878676580557344,0.026823284798393063,0.004290809786385473,0.36578962937289594,0.19304578488363938,0.6792446345675225,0.6052780350049337,-1.5696276157510047,-1.303593348054325,-2.3903241064034257,-24.30787582397461,-35.5365013885498,15.735000629425048,203.81830741797594,,,,,,,,,,,,,0.033883824396659344,9.501635743122474,2.623211885199827,-32.77612613677979,-51.75337738037109,68.37975296020508,-0.00943492693077846,0.022572916530657048,0.002689338193329818,0.033883824396659344,9.501635743122474,2.623211885199827
98.0,-0.06846972999836107,0.09666925235328698,-0.12360983394031035,0.19107250537317577,9.360233590154365,2.7818658233869193,0.08270420794292252,0.09999789467247405,-0.014056312169252646,0.3625437030107668,0.18247033714657962,0.678499704540366,0.6107971408579609,-1.5335202771838348,-1.297393808270445,-2.3335405694376123,-26.23800121307373,-34.501876525878906,14.614500579833985,202.93562317994244,none,false,false,false,,,,,,,,,0.12251733313545142,9.45638657088327,2.6577417149328357,-34.70737648010254,-50.71837753295898,67.25700286865235,0.08414455437756116,0.09574492296923211,-0.015670916411361778,0.12251733313545142,9.45638657088327,2.6577417149328357
99.0,-0.10616170029797924,-0.2699687304344065,-0.08895485820179565,0.3138211881603566,9.33894970393417,2.8649577221067823,-0.01822623777396903,0.0325738865753064,0.00803353867060182,0.3671287743761988,0.17017796148758124,0.6791805678074903,0.611335039138794,-1.5140501650253144,-1.2742392308641188,-2.303135829396767,-29.48250102996826,-33.81937675476074,13.463250522613526,201.62848620986125,,,,,,,,,,,,,0.2043058902993068,9.062307811250873,2.763113368959988,-37.948126525878905,-50.03625228881836,66.10800262451171,-0.016787253467753383,0.02832636202104611,0.0064202974697962255,0.2076356515823172,9.06845986489022,2.7754813220241283
100.0,0.04087640284834539,-0.38986349080269245,-0.24617725837172247,0.2713110095492619,9.423841485790177,2.6023594538370767,-0.03969301461863021,-0.03480772055484647,0.015255759999740357,0.3531431564513375,0.16632502978923275,0.679704068922529,0.6202874242090711,-1.5013431731392355,-1.2917636282303755,-2.261705835660299,-31.860376319885255,-33.908626556396484,16.470375652313233,205.8215772971579,none,false,false,false,,,,,,,,,0.312129425058397,9.033479872871848,2.3557192366935458,-40.329376678466794,-50.12512748718262,69.11587783813476,-0.038254656577848045,-0.039054044412777704,0.013640808977880607,0.312129425058397,9.033479872871848,2.3557192366935458
101.0,0.21255177296718264,0.34123659613403945,-0.3151800325878038,0.3192842209084642,9.415710666392108,2.471678868378743,-0.15734492661431432,-0.052067572716623545,-0.03722846552286998,0.33498467206954957,0.15197152070701123,0.6822555929422378,0.6298107743263245,-1.4980175197124481,-1.2998123908042907,-2.208856029510498,-32.67975135803223,-34.289251480102536,17.73787582397461,207.2243497930372,,,,,,,,,,,,,0.5315317110997615,9.756456408170191,2.156028810556572,-41.148376541137694,-50.50687713623047,70.38450302124023,-0.15594150008168073,-0.0517178741376847,-0.03513262439519167,0.5315317110997615,9.756456408170191,2.156028810556572
102.0,0.48159168788469303,0.36848877596796725,-0.6301244871289122,3.4820240439445365,6.881885474803401,4.2854187558679016,0.6169328375847316,0.3380275714284211,-0.9363628621487057,0.4703500010803634,0.041945108356337774,0.5217737526285882,0.6764994228587431,-0.9834845083601335,-0.8807943586040946,-1.7954313345983917,-40.660126762390135,-21.614251078143717,14.886000652313232,220.19408426540429,none,false,false,false,,,,,,,,,3.9633251945214236,7.249842996690788,3.6547854574871996,-49.129501800537106,-37.82925178527832,67.5318775177002,0.6183658059567725,0.33378124845159407,-0.9379737736547694,3.9633251945214236,7.249842996690788,3.6547854574871996
103.0,-0.03946361614940449,0.05464025510427279,-0.27488810530839825,8.11484519029275,3.200952560473711,4.45928012407743,0.21534967773522323,0.1999532055014219,0.13289198524151474,0.6078102069023328,-0.08330353903464782,0.2778840760389964,0.7389339147469937,-0.5063315423635336,-0.31487065095167893,-1.4587199749090733,-51.580265647486634,0.31677632661242233,15.23684270758378,271.3232219872927,,,,,,,,,,,,,8.074927268884121,3.2550924680171867,4.183819428468362,-60.0493443137721,-15.89605316362883,67.88092442562706,0.21681634345068,0.19570833043410227,0.1312560882920829,8.074927268884121,3.2550924680171867,4.183819428468362
