seconds_elapsed,accelerometer_z,accelerometer_y,accelerometer_x,gravity_z,gravity_y,gravity_x,gyroscope_z,gyroscope_y,gyroscope_x,orientation_qz,orientation_qy,orientation_qx,orientation_qw,orientation_roll,orientation_pitch,orientation_yaw,magnetometer_z,magnetometer_y,magnetometer_x,compass_magneticBearing,network_type,network_isConnected,network_isInternetReachable,network_isWifiEnabled,network_isConnectionExpensive,network_ssid,network_bssid,network_strength,network_ipAddress,network_frequency,network_cellularGeneration,network_carrier,totalAcceleration_z,totalAcceleration_y,totalAcceleration_x,magnetometerUncalibrated_z,magnetometerUncalibrated_y,magnetometerUncalibrated_x,gyroscopeUncalibrated_z,gyroscopeUncalibrated_y,gyroscopeUncalibrated_x,accelerometerUncalibrated_z,accelerometerUncalibrated_y,accelerometerUncalibrated_x
0.0,-0.07334914226289634,-0.39865550401896893,0.14609207701101734,7.229691641671317,3.9428522403423605,-4.775932584490095,0.474057119860444,1.1886756734181476,-0.2538974443851139,0.03916101073871807,0.26692757116896765,0.17691368208481714,0.930311273087512,0.5630946906058343,-0.38768558548046994,0.02728048275009944,-43.570925878441855,22.771875920503035,21.724321479382724,321.07372271999793,,,,,,,,,,,,,7.171087855878084,3.5332713619522425,-4.611895322799683,-51.71290978141453,6.489538275677225,74.84307338880456,0.47459320472958294,1.190479474871055,-0.25930407526902854,7.152869035909464,3.537438628437755,-4.6313886773455275
1.0,0.0591841148687344,-0.11798385183746908,0.21073363414582083,1.985011450215882,1.7575577129335964,-9.340322279462628,0.3403900986730979,0.4992597768645697,-1.3672332823424056,0.43410663496629864,0.5573369010406382,-0.25879112784248576,0.6199124604463577,1.3712457184698068,-0.17228694030028932,-1.0793497667593115,10.122375426888466,15.327375648617744,49.67212753295898,286.6801295224325,,,,,,,,,,,,,2.043848628123455,1.6391736058627857,-9.129085755815693,2.032125025391579,-1.1902500689029694,102.2887548828125,0.3418304475928002,0.49501224522395887,-1.3688492513086536,2.043848628123455,1.6391736058627857,-9.129085755815693
2.0,0.09813030970992871,-0.17727129804984768,-0.8823769212064176,1.275404291282786,8.018456775363129,-5.368817121675699,0.5625246314551023,0.32231348080962313,-0.09657622610821444,0.4935927798252295,0.4215793414871291,-0.19496825543960722,0.06324723799739466,1.4400457910972067,-1.027475115096215,-2.0533395332865196,20.798626022338865,-34.59937618255615,13.400250511169434,201.06345780761072,none,false,false,false,,,,,,,,,1.3731787833615694,7.840720247514177,-6.250680024080937,12.403500480651855,-51.05250225067139,65.71312774658203,0.5639535545864526,0.3180563759570028,-0.09820196157613513,1.3731787833615694,7.840720247514177,-6.250680024080937
3.0,-0.23514469370872962,-0.2555499043463185,0.46453194988725505,0.05981337564932828,9.082091473116733,-3.567902163703843,0.1759029404424569,0.21874901737707356,-0.09773823598801505,0.038268824615100824,0.057183287521400075,-0.016355029279642767,0.04642977214840213,1.6619932450870476,-1.220747686848782,-1.8194801949038364,26.544001159667967,-33.27375133514404,3.996375169754028,187.00621567383132,,,,,,,,,,,,,-0.16508089367519407,8.809963647057028,-3.1015471938778374,18.022500648498536,-49.524376983642576,56.487002487182615,0.18115829086244697,0.21450544251958922,-0.0981926959339935,-0.16508089367519407,8.809963647057028,-3.1015471938778374
4.0,-0.17240899798515089,0.13027638423384405,0.051604470822448824,0.8012054990908569,8.983675190046721,-3.739776099429411,0.0623365100795901,-0.039420297115782994,0.10124764841344983,-0.18468869901170917,-0.15339776522973003,0.085116549011539,0.03386122546690589,1.4807221655752145,-1.2061470443127202,-2.0749521056811013,21.863625869750976,-36.353251419067384,1.2502500587701797,182.02642064175166,none,false,false,false,,,,,,,,,0.6286573791100333,9.113482788497327,-3.6876810543677387,13.435125579833985,-52.54537727355957,53.89125205993653,0.06645649994723499,-0.04554549995344132,0.10199062388390302,0.6286573791100333,9.113482788497327,-3.6876810543677387
5.0,-0.03577467984990171,-0.5533242834879473,0.2158339690975499,0.3080560907371121,9.11355480345169,-3.4839831862119164,-0.05394718138610616,-0.0233251216739197,0.04709779362504681,-0.7020279104166692,-0.6485061143884564,0.2892216292053166,0.040305386066879376,1.6002199425555692,-1.207854175331569,-2.0201147062943714,22.425375785827637,-35.6737516784668,-0.549000015258789,179.12918650891004,,,,,,,,,,,,,0.27223664849517076,8.559751859985957,-3.2676343150658185,13.966875553131104,-51.88650230407715,52.13362739562988,-0.052506127193862315,-0.027576837921515107,0.04548014680781931,0.27223664849517076,8.559751859985957,-3.2676343150658185
6.0,-0.1051690614376549,-0.18939887171629632,0.1471207680291321,0.46520924488183957,9.136697901357518,-3.418162140515771,-0.044609124599955974,-0.04928962575271725,0.04598137583117932,-0.6798734062969094,-0.615418268312322,0.2787716548041542,0.05009178190358389,1.55046546695256,-1.2179715775027133,-2.083258102435877,21.723000793457032,-35.856001663208005,0.15300000578165054,180.250443093943,none,false,false,false,,,,,,,,,0.3598797190473369,8.946823181492267,-3.270551148322549,13.268625621795655,-52.06687744140625,52.8337523651123,-0.04317500076722354,-0.05353149987757206,0.04437399978749454,0.3598797190473369,8.946823181492267,-3.270551148322549
7.0,0.057400227994611946,0.18531818341205616,0.11192629574844153,0.6230239883655369,9.08573094925078,-3.520082114946724,-0.019248652390624378,0.07539044032055958,-0.06907757349750575,-0.4772795550894029,-0.4122936442346856,0.19926765325045823,0.053367000229087296,1.491404875670329,-1.2235787859057436,-2.1360060637540155,22.110000791549684,-35.51587640762329,0.3693750125169754,180.5333489787549,,,,,,,,,,,,,0.6801089410033851,9.270545492077819,-3.4076645209057497,13.921500549316406,-52.25775215148926,53.01562744140625,-0.017806249908080288,0.07113603177462138,-0.07069252481154513,0.6801089410033851,9.270545492077819,-3.4076645209057497
8.0,0.02319835569691278,-0.3314517032099413,0.0074407383890859055,0.5083478449058592,9.148840446098179,-3.420269435527278,-0.03991584093448254,0.05994727717952268,-0.006602724078157455,-0.4350033414130117,-0.3862411198662777,0.1743009045135741,0.030196186371932866,1.5171815554300945,-1.220514603689605,-2.049121631126778,23.39925090789795,-36.037876510620116,1.7598750746250154,182.84068762016702,none,false,false,false,,,,,,,,,0.5313926736513773,8.81688278796626,-3.412378096113018,14.931750564575195,-52.256627044677735,54.410252227783204,-0.03848094018729459,0.055694305098219085,-0.008220049040853092,0.5313926736513773,8.81688278796626,-3.412378096113018
9.0,-0.3153524453340255,-0.35241051784965516,0.4665127007456699,0.3542501375512543,9.182602854058294,-3.331971380970266,0.06901556407284065,0.05765159354618221,-0.007009803536621963,-0.5010300626849183,-0.4518320047029174,0.1931514067224937,0.030398207833491366,1.5518428948846195,-1.2236605670192453,-2.019054637096896,22.602000999450684,-35.365126571655274,1.7636250749975444,182.85831014431204,,,,,,,,,,,,,0.03888415891474279,8.829693997260367,-2.8649303287562757,14.112000503540038,-51.58012733459473,54.3723770904541,0.07045122456974258,0.0533998779742522,-0.008623406802322351,0.03888415891474279,8.829693997260367,-2.8649303287562757
10.0,-0.16209558712890243,0.2369650739918251,0.2633082997445755,0.5140048131568007,9.1131429105702,-3.493125356069886,0.0072985005239024755,-0.04279137223958969,0.006136624868959189,-0.712640669086192,-0.6412316472223489,0.27864106014223383,0.04456477208376521,1.509782072341088,-1.2220612516497622,-2.1006001352083565,21.33262580871582,-36.324376602172855,0.8490000465512275,181.3670659746582,none,false,false,false,,,,,,,,,0.3671853122319661,9.352704833535586,-3.2553898674600266,12.865875606536866,-52.549127426147464,53.49600242614746,0.008742249510250986,-0.04703599879518151,0.0045127504784613845,0.3518896209869054,9.349592501574223,-3.2293442210348524
11.0,-0.1751831886865715,0.10255751874537604,0.07186166875728286,0.6905437221169693,8.980954906728009,-3.775344463858274,0.042672181068280454,-0.03179215701004746,0.02562487726647626,-0.7179096417851968,-0.6362241754437438,0.2767159106707809,0.031577920799355695,1.477762538607758,-1.2013883307428643,-2.1116981376515755,20.637750701904295,-36.70650131225586,2.973375094309449,184.6900663746206,,,,,,,,,,,,,0.5152158665904166,9.08301578653921,-3.7029655239369608,12.168375453948975,-52.91325225830078,55.63237747192383,0.04411053996734029,-0.03604252577540191,0.02400722929422616,0.5152158665904166,9.08301578653921,-3.7029655239369608
12.0,-0.1827333141118288,-0.5231442459694603,0.23655143210335688,0.8682179973990309,9.030989310320686,-3.631070943439708,-0.00384591666446759,-0.08298601377478773,0.05665952998148923,-0.7210436264673868,-0.6298831818150539,0.2844505499975354,0.0356168824741069,1.4543956448050106,-1.1932345126189439,-2.1525785806132296,20.437500762939454,-36.10762641906738,3.27075012922287,185.1857744678617,none,false,false,false,,,,,,,,,0.6853353298068339,8.507368026995191,-3.393978111884173,11.953875408172607,-52.240877380371096,55.92225212097168,-0.0023987630732578806,-0.08723489994109415,0.05504900878664143,0.6853353298068339,8.507368026995191,-3.393978111884173
13.0,-0.094653372392335,-0.2003668153492531,0.38917532244162395,0.7728729624264311,9.075149611671373,-3.5200205250541763,0.0014275741562539456,0.007783576782208448,0.05184558820088997,-0.45080243655950714,-0.3939654455326571,0.1706745549298749,0.036596812031780473,1.4380960830367437,-1.2069036795361208,-2.152256761447038,20.605125770568847,-36.04087631225586,2.602875101789832,184.15439791928418,,,,,,,,,,,,,0.6779822108547876,8.874269206925193,-3.1303739116923643,12.147375392913819,-52.24725227355957,55.257002182006836,0.0028699749678957696,0.0035318633468419897,0.05022389827953542,0.6779822108547876,8.874269206925193,-3.1303739116923643
14.0,-0.0245830484885065,0.1985591082084997,-0.004846359146576302,0.8266366160492978,9.187355527690812,-3.21852833850711,-0.05630965339075221,0.07524925684740785,-0.07102487566834777,-0.7222858007047691,-0.6338159021209268,0.26998163949625165,0.050816558557106,1.4205202331729965,-1.2340788899683486,-2.185730723773732,20.3456258392334,-35.85675163269043,1.1928750337660312,181.92224234931567,none,false,false,false,,,,,,,,,0.8018073895398308,9.385403315226236,-3.222867790974823,11.843250465393066,-52.092752380371095,53.846627426147464,-0.05485977617433608,0.07100309513619926,-0.07264356321590666,0.8018073895398308,9.385403315226236,-3.222867790974823
15.0,0.11235933844922202,-0.15361316739996472,-0.06679259674476072,0.841653496174529,9.155743598937988,-3.2940462060494,-0.0350557596915785,0.0019802689305780563,-0.05817732752264276,-0.7253077083294934,-0.6307820500713763,0.2702190085212783,0.04732597973382119,1.4022876366530315,-1.2255848457317542,-2.1993493726938076,21.80362564086914,-35.7292514038086,1.8761250726878642,183.02121250677087,,,,,,,,,,,,,0.9536287593332553,9.001592499194759,-3.3603640319687305,13.33837553024292,-51.96150260925293,54.512627334594725,-0.03360796611135205,-0.002280882760590198,-0.05979227977713533,0.9536287593332553,9.001592499194759,-3.3603640319687305
16.0,-0.0661619216762483,-0.4935762772522867,0.1037173686735332,0.8763663876056671,9.2243922996521,-3.131395275592804,0.022413876447826622,-0.006663249270059168,0.031204250855371356,-0.7279967361688614,-0.6321360629796982,0.2598751305043697,0.04493587024509907,1.3730076777935027,-1.2356087291240692,-2.20949551820755,24.453750953674316,-36.541501388549804,0.38175001569092276,180.61630943118973,none,false,false,false,,,,,,,,,0.8123465731444925,8.735231092660735,-3.012310543272755,16.04962564468384,-52.76437705993652,52.98712760925293,0.027562498811143216,-0.008836110922122243,0.026447221495662674,0.8098995377868414,8.73030339717865,-3.0271936482191086
17.0,-0.2227980813011527,-0.06707213746383786,0.2990485482336953,0.8384299991597043,9.150428271529698,-3.324520965613941,0.020572426674120566,0.04556102993185906,0.012853553564305984,-0.18309003409772817,-0.15188508576685839,0.0672712771609278,0.02265148514035702,1.3897684186992079,-1.2266050671586897,-2.1248047611500955,39.04987670898438,-38.6062516784668,1.76962508097291,182.60789799971855,,,,,,,,,,,,,0.6274366671274795,9.07434844026471,-3.015900141826951,30.79912624359131,-54.85687728881836,54.48862747192383,0.026089603985005087,0.04004245121861891,0.009697154113598684,0.6274366671274795,9.07434844026471,-3.015900141826951
18.0,-0.21243652421981096,0.27746375639438997,0.18188810559427915,0.8901749077234783,8.955662446863512,-3.8144981019637165,-0.0069035888409776855,-0.018167696994646352,0.025892202972923176,-0.16141959031422934,-0.1282313536195194,0.0636582431547782,0.018120901866852508,1.411692711652494,-1.1878000638064217,-2.128537103241565,33.011251544952394,-18.4807506608963,20.796000866889955,230.287879175565,none,false,false,false,,,,,,,,,0.6776073830677014,9.232601932450837,-3.6320619361073363,24.25500111579895,-34.404001235961914,73.37100326538086,-0.005467326781426621,-0.022416583815644875,0.024281684189370954,0.6776073830677014,9.232601932450837,-3.6320619361073363
19.0,-0.09194875680202362,-0.0923271840620859,-0.1151408638403404,0.9824735218403386,8.972319584266812,-3.7235892450108246,0.0715283086824724,0.02389534321777961,0.0012577203942426278,-0.7289392796217227,-0.6270737227271584,0.2707732132836884,0.025723696101968195,1.3997884906974494,-1.1923530055027383,-2.1725052010779287,20.342250787615775,-13.466625490188598,9.335625288486481,210.5238121789163,,,,,,,,,,,,,0.8902618064380744,8.87954012552897,-3.8382545768045913,11.702625397592783,-29.673376197814942,61.88212768554688,0.07297205805376757,0.019643626951922972,-3.545335585287973E-4,0.8902618064380744,8.87954012552897,-3.8382545768045913
20.0,-0.1795285934522416,-0.5457366899504225,0.45721103867635793,1.0572799684313854,8.944720334345751,-3.743542775069133,-0.032293627732524685,-0.055625490132061875,0.083454412020122,-0.3004178511034144,-0.24847792811913066,0.11155878213962706,0.019592742505368067,1.4025095052058154,-1.1777777742631366,-2.152297029400816,11.416875391006469,-21.840375900268555,-11.072250509262085,152.15980372393264,none,false,false,false,,,,,,,,,0.8775341946742322,8.398484107291344,-3.2859016367704563,3.1466251334547994,-38.27175159454346,41.56012702941894,-0.030853921081870794,-0.059877206023563355,0.08183676449527197,0.8775341946742322,8.398484107291344,-3.2859016367704563
21.0,-0.0844478268797199,-0.029420964432824357,0.2113720150116612,0.8850460907115656,9.000278753392836,-3.6950434796950398,-0.03721621247137537,-0.03415037065025161,0.02049158419491631,-0.39858932179563183,-0.3445835791382135,0.1515511072733823,0.030652813489010156,1.4100484076668234,-1.197417934735616,-2.1634371818280687,21.468750877380373,-35.30962646484375,-3.5448751303553583,174.1812447251681,,,,,,,,,,,,,0.8003132705047142,8.970346020717248,-3.4831398643699347,13.027500610351563,-51.543002395629884,49.23487686157227,-0.0357690582531366,-0.03840061910634879,0.018882425262196228,0.8003132705047142,8.970346020717248,-3.4831398643699347
22.0,-0.009433997677406296,0.15341306649148465,-0.006936990511385375,0.9279319402668625,9.143627948760987,-3.2937614274024964,-0.027528589605215457,0.014381682481801156,-0.04195655991627586,-0.4823911017179489,-0.41858626663684845,0.16344563886523247,0.028706599880824798,1.3744450724124908,-1.2377690970897675,-2.156221443414688,24.617625961303713,-34.773751449584964,1.7373750653117894,182.87117407826153,none,false,false,false,,,,,,,,,0.9216430994986308,9.264434106279127,-3.295382830176023,16.140375633239746,-51.001877059936525,54.40087730407715,-0.026092327504169822,0.010132797458900673,-0.04357388445480478,0.9181995301693678,9.296568446159363,-3.300216157436371
23.0,0.049618306770628576,-0.40374021904597823,-0.01420034253604564,0.8735579817610628,9.193712122300091,-3.196170208500881,-0.009570544272071064,0.12992252380873012,-0.04494616205776387,-0.3028287653829537,-0.2571168483472338,0.10571659078785017,0.03011616681275579,1.3912443086212756,-1.2514851841272092,-2.1221270210602703,26.922376136779786,-34.813501586914064,1.9016250684857368,183.2852726139642,,,,,,,,,,,,,0.9228206307207253,8.789457779304653,-3.209845749770894,18.449625759124757,-51.05812721252441,54.493877182006834,-0.008128836824752317,0.12567227457806762,-0.04657029652838955,0.9228206307207253,8.789457779304653,-3.209845749770894
24.0,-0.33255311579093116,-0.29335554563763117,0.5029673385203327,0.7942201007194448,9.130706966513454,-3.3860869336836408,0.05421004735170772,-0.013577451518572429,0.02487267188125235,-0.2572410372224185,-0.21255649139385413,0.09206851416885263,0.02890365353167647,1.3972050588909943,-1.228590460106878,-2.129907986905315,25.19775104522705,-37.012501602172854,1.7486250650882722,182.7665712262998,none,false,false,false,,,,,,,,,0.4614965564681973,8.836824171613939,-2.8826243883312337,16.714125556945802,-53.22787719726563,54.38475219726563,0.05564840623250633,-0.01783186121496792,0.023257720256772113,0.4614965564681973,8.836824171613939,-2.8826243883312337
25.0,-0.09017879298577706,0.22388496266805805,0.31672595032261386,1.0883995364694035,9.082642527187572,-3.429822704371284,0.008480073911792571,0.01825346500326944,0.006932177318094096,-0.7323039115643969,-0.6334745106743831,0.2453624201463718,0.034743882533089784,1.3380985949553696,-1.239364996844647,-2.2081525232277666,22.50975086212158,-37.58775146484375,0.15562499575316907,180.2376322994048,,,,,,,,,,,,,0.9979103447266799,9.306076877257404,-3.1126236835969427,14.02650058746338,-53.81287750244141,52.78687698364258,0.009914975004768607,0.014000493078723107,0.005316213815297821,0.9979103447266799,9.306076877257404,-3.1126236835969427
26.0,-0.2940704768470553,0.25880470213544843,0.23516920024510657,0.9949053850504431,9.046452059604153,-3.5520575565866905,0.020836641363726528,-0.019387499945165188,0.030950980238141676,-0.7281776153215087,-0.6368277840094991,0.24873783963151497,0.025799821751044675,1.3856850661853752,-1.2273887029968866,-2.1530362261403906,22.12762580871582,-37.324126739501956,1.7501250720024109,182.68120629368295,none,false,false,false,,,,,,,,,0.7005475576837906,9.304779694812133,-3.316442238498885,13.664625568389893,-53.52975242614746,54.40012771606445,0.022281740006862904,-0.02364460766936342,0.02934142138681137,0.7005475576837906,9.304779694812133,-3.316442238498885
27.0,-0.21689234456440032,-0.24186463777304573,0.012182882745001539,0.9898624966541926,9.135894083509259,-3.3271038392010857,0.02599430626885283,-0.0349808173106596,-1.3613927242631959E-4,-0.7274832573591494,-0.6372251691771489,0.24926792260478525,0.035824058842206116,1.3802496007844514,-1.2405169395839466,-2.1733182762183394,21.628875885009766,-36.72637649536133,1.2176250591874123,181.94907761518382,,,,,,,,,,,,,0.7726632733190176,8.893518111285042,-3.3144163331564735,13.168125553131103,-52.93087730407715,53.88525199890137,0.02742376220919708,-0.03922969996375908,-0.0017561871964152497,0.7726632733190176,8.893518111285042,-3.3144163331564735
28.0,-0.16468701060713814,-0.4832383254081896,0.3232263164654706,0.9959987853423203,9.15455433873847,-3.24982216098521,0.003901225857107955,-0.04426286814223025,0.07800294016944427,-0.7269618322353552,-0.6365399301642238,0.2527254962980157,0.03830533646194652,1.3826334901375346,-1.2390193148414688,-2.179589113386551,22.20487579345703,-36.41850135803222,2.1825000934302805,183.44167338788353,none,false,false,false,,,,,,,,,0.8311292517015083,8.670870710127424,-2.926038254900734,13.74975061416626,-52.626376953125,54.830627517700194,0.005334190859952394,-0.048522672908124974,0.07640012243178253,0.8311292517015083,8.670870710127424,-2.926038254900734
29.0,-0.128043952023647,-0.004135376828558305,0.22619279527890623,0.9216001666351861,9.155503675049426,-3.281873567431581,-0.005137871618908231,0.009315964567594894,0.014630818555113112,-0.7272653568024728,-0.6379840087656882,0.24833299862403496,0.03601057842081668,1.3813777402335523,-1.2426415214351578,-2.1709678453557633,22.87012571811676,-35.994751358032225,2.7888751235604285,184.14408199886583,,,,,,,,,,,,,0.7932456229703829,9.150860692940507,-3.055239847331655,14.848500595092773,-52.731752243041996,55.50937744140625,-0.003700247689122611,0.005068440170091863,0.013018935416262634,0.7932456229703829,9.150860692940507,-3.055239847331655
30.0,-0.03894532966427505,0.1296824514120817,0.22274606384336948,1.0224243201315404,9.138650951385499,-3.315428867340088,-0.0737229159476199,0.053781371833026115,-0.05319767142189484,-0.7313501536846161,-0.6376537626981735,0.2379081717133522,0.03184320003725588,1.34383105635643,-1.2482068121433259,-2.18695063829422,24.211500968933105,-37.12500137329101,2.2008751010894776,183.41125358602335,none,false,false,false,,,,,,,,,0.9785747963676948,9.287938066048197,-3.1058853073875503,15.713625602722168,-53.36962738037109,54.84900215148926,-0.07340457865341317,0.04805148382772609,-0.04949591576241621,0.9832200442627073,9.26789743900299,-3.092184157371521
31.0,0.04477388282105619,-0.10040696301296645,0.16120509797017837,0.9074390025115481,9.08896370495067,-3.4828396217495787,-0.044472400486321735,0.08935185766197962,-0.04329752382628693,-0.7296392707263722,-0.635908784235225,0.24793404895885318,0.026746931380829682,1.3715128232451046,-1.2283052755337136,-2.167188077580695,23.33100086212158,-36.54712654113769,2.480250107049942,183.88173970324974,,,,,,,,,,,,,0.9517662202501121,8.98804752966937,-3.321172211100073,14.856375579833985,-52.755752410888675,55.1373770904541,-0.043027970737012304,0.08509888643823048,-0.04491485130631983,0.9517662202501121,8.98804752966937,-3.321172211100073
32.0,-0.12039843856790426,-0.5547728730425571,0.2728481684248931,0.786528030982112,9.207005557447378,-3.202312429352562,0.0321911749448262,-0.0031247546248064904,-0.008278308408882688,-0.7277398941540482,-0.6402542189796372,0.2410744844686867,0.036830574209516,1.3684649526482762,-1.254080114978375,-2.174029102419863,24.91687602996826,-35.697751922607424,0.7248750280588865,181.1277353395365,none,false,false,false,,,,,,,,,0.6658782442699712,8.651727147621683,-2.9289164891337403,16.62937572479248,-52.12500205993652,53.33625244140625,0.033621445736464334,-0.0073643387477918,-0.009889216089219438,0.6658782442699712,8.651727147621683,-2.9289164891337403
33.0,-0.07438187943954094,0.032663146508674995,0.2754167952419569,1.042486305330314,9.10764918607824,-3.4070811388539335,0.02026967762849561,0.0025049492135865263,-0.00911720347876596,-0.7386531122759277,-0.6273890570098278,0.2433817151422594,0.026951548894502075,1.2892314265756046,-1.2238878981739867,-2.2431345126208138,23.618625869750975,-38.38012680053711,-0.4387500058859587,179.39207887245658,,,,,,,,,,,,,0.9677426950348651,9.139826910168518,-3.131145738503512,15.127500705718994,-54.61725219726563,52.182002258300784,0.021703217805612206,-0.0017507430627056867,-0.010733167069161883,0.9677426950348651,9.139826910168518,-3.131145738503512
34.0,-0.060723705673772915,0.20483459944964624,0.05771743193469649,1.2602288810645832,9.015029056399475,-3.5772326904184677,0.02882646966506453,0.05093700901659973,-0.02937916594137456,-0.741117448199029,-0.6182374790603039,0.25714441958595724,0.03991901974978985,1.272097620309568,-1.21520712445764,-2.2998672256282733,19.398375663757324,-40.090126495361325,-2.154000084400177,176.90478301160172,none,false,false,false,,,,,,,,,1.199100060762801,9.219310774522668,-3.519023710606145,10.867125425338745,-56.307377395629885,50.470502319335935,0.030268872280002516,0.04669472937673038,-0.030983333612846976,1.199100060762801,9.219310774522668,-3.519023710606145
35.0,-0.19071892047300934,-0.106948330886662,0.011552318106405437,1.2169839870929717,8.983097639083862,-3.634258518218994,0.05396670843520672,-0.07518391077876976,0.050270542299540914,-0.7404065537452698,-0.6207144320011139,0.25265185073018076,0.031155249997973443,1.2824790930747987,-1.211519649028778,-2.270422432422638,16.07362558364868,-36.78375175476074,-0.3633750229328871,179.5193437045614,,,,,,,,,,,,,1.0259925496019422,8.875644421577453,-3.6222181713581083,7.627500314712524,-52.94887710571289,52.29225234985351,0.05900812475476414,-0.08111812468618154,0.04967600110452622,1.0259925496019422,8.875644421577453,-3.6222181713581083
36.0,-0.06551025585527075,-0.49973257946982685,0.2779830849784262,1.0889178423904906,9.01147414188759,-3.6033966985403323,-0.033555447262259994,-0.017365841490059795,0.07066683061328707,-0.7358288233186684,-0.6276668508847555,0.251165010035038,0.02437871577692967,1.3275156266549055,-1.2125616424223955,-2.212959415772382,18.94687568664551,-35.13187652587891,0.7620000280439854,181.22910748499976,none,false,false,false,,,,,,,,,1.0231073985570203,8.51123717251946,-3.3249104619026184,10.532625484466553,-51.33600227355957,53.431502227783206,-0.03211373739903516,-0.0216188113859827,0.06904950518031965,1.0231073985570203,8.51123717251946,-3.3249104619026184
37.0,-0.1867483896086924,-0.09952594190370291,0.32369161423295734,1.0914315593987702,9.019179410934449,-3.604948573112488,-0.009942202358552725,0.022967945719783257,0.015611015181840942,-0.7351922845840454,-0.6233605891466141,0.26130374252796174,0.04233786961063743,1.3198763644695282,-1.2204851067066194,-2.261564922332764,20.057250633239747,-35.98050148010254,0.16875000573694707,180.25888340548815,,,,,,,,,,,,,0.9047955914889232,8.902519726517177,-3.270662524912617,11.596875495910645,-52.2105020904541,52.82737731933594,-0.008500496211397176,0.018716335702355546,0.014004577794988262,0.9044940468668937,8.919154920578002,-3.280708649158478
38.0,-0.04565111438198216,0.1863960221902851,0.24415694838207141,0.8872337520268618,9.036519256292605,-3.610743052819196,-0.021710024874583626,-0.014263242990294895,0.04221658521138205,-0.7282506373583102,-0.6275835516406041,0.267333068391856,0.0545409705818576,1.361253958122403,-1.235196191890567,-2.246537309066922,21.22650089263916,-36.47925163269043,-0.7631250175833703,178.8433452028781,none,false,false,false,,,,,,,,,0.8412735689723608,9.222403381385055,-3.3660266329260433,12.771000442504883,-52.6950023651123,51.89287727355957,-0.020269678241693147,-0.018513490012524152,0.040604703386526296,0.8412735689723608,9.222403381385055,-3.3660266329260433
39.0,0.05831814815732881,-0.056224577700590146,0.061209769403137784,0.8456992346166384,9.120250947404616,-3.36586595761894,-0.09207512104116819,0.04096421478864025,-0.09616102876287758,-0.7117877797325058,-0.6323780287610422,0.22851620880093906,0.026033822041336852,1.387678043677075,-1.2511214454575341,-2.1287518432824917,24.2235009765625,-35.18700164794922,1.0211250308901072,181.65763431098577,,,,,,,,,,,,,0.9036460756370337,9.063512816287503,-3.304167495874485,15.721125659942627,-51.43012741088867,53.68575248718262,-0.09065024529163744,0.03671384841550653,-0.09778002488846872,0.9036460756370337,9.063512816287503,-3.304167495874485
40.0,-0.10913849917386531,-0.5117280492559075,0.24022696477671465,0.9045021048947877,9.017343119078992,-3.6829372434055103,0.012553341875756435,0.096620295418076,-0.02031732701908539,-0.24678607197368846,-0.20573002684350108,0.08764264849471111,0.02207652941875744,1.349955279453128,-1.209020202066384,-2.1685424809362375,23.36212589263916,-36.16425132751465,2.6340001069009302,184.18983431354638,none,false,false,false,,,,,,,,,0.795091210115774,8.505096033507703,-3.4421795571551606,14.885250625610352,-52.38900276184082,55.244627151489254,0.013996410621606772,0.0923727723437887,-0.02192784689532796,0.795091210115774,8.505096033507703,-3.4421795571551606
41.0,-0.21471555141898074,-0.036597093604136224,0.3272833523322081,1.038654663185082,8.941628512769643,-3.806224723853687,0.06651225397545918,-0.0678670335351033,0.039427450885448384,-0.11261757706651593,-0.08321870730655027,0.05254512095805442,0.01695652468009543,1.3209757320951707,-1.1870171303796295,-2.1837033281231872,22.197750701904297,-36.850126876831055,3.1710001182556153,184.92687633463984,,,,,,,,,,,,,0.8237480586855719,8.904595936879073,-3.4784823431827054,13.737000579833984,-53.05912696838379,55.80750213623047,0.067950611787976,-0.07211874931703742,0.03780306357999935,0.8237480586855719,8.904595936879073,-3.4784823431827054
42.0,-0.09485005507446534,0.21008135283402368,0.13412602625641168,1.0830945898504818,8.974220144982432,-3.723005229351567,0.01104764839505205,-0.011183787990213917,0.02595618815336487,-0.2773894620876686,-0.2294675327983557,0.09499694027152716,0.019089431363182467,1.3110751240861183,-1.2077021961118661,-2.200867585107392,21.989625816345214,-36.12600135803223,1.6143750682473184,182.55616211295083,none,false,false,false,,,,,,,,,0.9879338715280241,9.18381656852423,-3.588383988422506,13.420125513076782,-52.20037734985352,54.2115022277832,0.012489356630767631,-0.015431313282155459,0.024341582956880627,0.9879338715280241,9.18381656852423,-3.588383988422506
43.0,-0.17576057423311886,0.028782910907106236,0.015346540448182068,1.2532334073935405,8.936153081384036,-3.76344365648704,0.014487377523134152,0.028067523522265984,-0.038411028126218154,-0.33413680945292557,-0.26603890527593027,0.12736470377681278,0.02188815847517563,1.2807643106668303,-1.2056166476542407,-2.2431910840591582,20.890500640869142,-35.67037643432617,1.365000059455633,182.21390346121527,,,,,,,,,,,,,1.0771010468464972,8.964404403573216,-3.747591267717947,12.403125438690186,-51.901127395629885,54.011627197265625,0.011695668940423148,0.029472647327007634,-0.04608155879662326,1.0771010468464972,8.964404403573216,-3.747591267717947
44.0,-0.18067862754505054,-0.4881332378615351,0.1698134576938316,1.205682646410138,8.948092479331821,-3.7468620001101027,0.018580198818172265,-0.07620358913399206,0.05000643549247248,-0.7407476341023165,-0.6185365675711164,0.2577843912968449,0.02901355902134788,1.290260514792274,-1.2009931265139113,-2.2673540910085044,20.24812587738037,-37.00425132751465,1.0425000366568566,181.62229266754127,none,false,false,false,,,,,,,,,1.0246176923221142,8.459444541557163,-3.5765369511118124,11.808750438690186,-53.21512741088867,53.69925231933594,0.020020544920854345,-0.08045656130750581,0.0483795796511787,1.0246176923221142,8.459444541557163,-3.5765369511118124
45.0,-0.12260303353097769,-0.0955832319721432,0.4083715343829429,1.3677233799849406,8.933029458074287,-3.712269292019381,-0.004812500594804685,-0.004000980123950571,0.05394987761974335,-0.7443086369202869,-0.6148176258153254,0.25716974195277337,0.032609415766183696,1.2572538356969851,-1.201682451928016,-2.304547911823386,19.43962577819824,-37.79775161743164,1.3800000532716512,182.09391130812838,,,,,,,,,,,,,1.2448277799135978,8.836944457327965,-3.3033729331328137,10.974375400543213,-54.00937744140625,54.03637718200684,-0.003366053725282351,-0.008244607163885352,0.05233357870476503,1.2448277799135978,8.836944457327965,-3.3033729331328137
46.0,-0.09407702266402981,0.18175047709077014,0.273324409002146,1.21393693077798,8.864409989001704,-3.920370662913603,-0.08468094002455473,0.03658180743326793,-0.03682004943914195,-0.6110532517526664,-0.5090835076921126,0.20995677379416486,0.02929548079134524,1.2742659835254444,-1.1990189540619944,-2.2830049991607666,19.62150068283081,-37.14450141906738,1.8045000561326743,182.76858733608603,none,false,false,false,,,,,,,,,1.1194897685565202,9.045676909241022,-3.646510491768519,11.575875453948974,-53.43900230407715,54.47550231933594,-0.08325148464669244,0.032326112916268926,-0.038438737858086824,1.1194897685565202,9.045676909241022,-3.646510491768519
47.0,0.16530054924078286,-0.07813248120248317,-0.0016555107571184634,1.2209692776203156,9.043971786499023,-3.4945364356040955,0.02278688106925623,0.06843007363305234,-0.04140383612346089,-0.5825513684749604,-0.48175985157489776,0.1888641595840454,0.02921988978399895,1.2333686566352844,-1.2185664618015288,-2.2983763289451598,20.35312568664551,-36.567751541137696,1.5588750429451466,182.46125413434723,,,,,,,,,,,,,1.4001312534702886,8.963673681315809,-3.5106922388076782,11.880375423431396,-52.782377319335936,54.17400230407715,0.02422314288906089,0.06418118852716272,-0.043018439826140606,1.3857930655777455,8.965330910682678,-3.4957291567325592
48.0,-0.2469640875636947,-0.5639610587272281,0.2872289145552535,1.1645303222478605,9.143446978400736,-3.278615998286827,0.03359628517162239,-0.021328837149730412,0.025512376495885968,-0.6280938252514484,-0.5265630366755467,0.19539546791244955,0.02133450987942827,1.2384681164049636,-1.2334695025986315,-2.262550400752647,21.351375846862794,-34.95375160217285,1.3428750463575125,182.18310226423517,none,false,false,false,,,,,,,,,0.9171632781040435,8.578966561485739,-2.9908295525055304,12.881625499725342,-51.1556273651123,53.97000221252441,0.035035272732856546,-0.025583168251974747,0.0238896036926325,0.9171632781040435,8.578966561485739,-2.9908295525055304
49.0,-0.1495165068836016,0.13787923692402862,0.23213778657488304,1.1114945712656077,9.0607011530659,-3.489145288372984,0.0323812488566938,0.01094742563516632,0.0012455894566122808,-0.74290397851774,-0.6218560987179822,0.24489878177052676,0.024032386130478124,1.2632458009342156,-1.212017062867042,-2.267542890983053,21.61125087738037,-33.795001373291015,1.9098750783503056,183.22710733282648,,,,,,,,,,,,,0.9616812332798405,9.198085095622751,-3.256537266130937,13.000875511169433,-49.82250221252441,54.5223770904541,0.033823653411887145,0.006693013592203166,-3.7205925978281917E-4,0.9616812332798405,9.198085095622751,-3.256537266130937
50.0,-0.11764099889014866,0.1556344480326801,0.019770544771032007,1.204825931612183,9.041953058803783,-3.496728415582694,0.017889827759206004,-0.012128307821923028,0.02726678821422598,-0.5686135251148074,-0.4754730942202549,0.18474293076524548,0.02428434307640761,1.2647825035394407,-1.226108095225166,-2.253155399771298,24.024000968933105,-34.410001602172855,1.7925000742077828,183.0039385087527,none,false,false,false,,,,,,,,,1.0868353462668465,9.197084244559793,-3.4764369264537214,15.58012565612793,-50.65312713623047,54.41812713623047,0.019322792839660655,-0.01638676554384623,0.025654533786662652,1.0868353462668465,9.197084244559793,-3.4764369264537214
51.0,-0.2750095629188068,-0.2951636572217788,-0.06936808224475267,1.2727845048203188,9.089783303877887,-3.3506902783524755,0.04268353822926926,-0.06066336595720732,0.016986014229236263,-0.7428943941406175,-0.6267625560947493,0.23036428204938478,0.0261017549166675,1.2412869509528666,-1.23637261577681,-2.270682283476287,22.516125755310057,-35.82750144958496,1.663875062763691,182.68760559197005,,,,,,,,,,,,,0.9974573967320954,8.7940312834347,-3.4195663280346813,14.026875591278076,-52.0140022277832,54.32250221252441,0.04411843944672901,-0.06492042071693162,0.015385024258774697,0.9974573967320954,8.7940312834347,-3.4195663280346813
52.0,-0.09933490107887157,-0.39287923005326547,0.39690522211465507,1.3481058602285858,9.087237150362222,-3.3209883222485534,-0.06500245160057995,0.0019317391310252395,0.03601017068870658,-0.7472735430934642,-0.6189082076053808,0.23753612599160412,0.03462854446382216,1.2019018383309392,-1.2286333801722762,-2.333016119380989,19.542750740051268,-35.25000160217285,-1.5075000649690629,177.53822648653693,none,false,false,false,,,,,,,,,1.2483134325916445,8.693889070265364,-2.9236545888799252,11.06887544631958,-51.48412712097168,51.14287727355957,-0.06356004851085006,-0.0023226703188436873,0.034400611166276185,1.2483134325916445,8.693889070265364,-2.9236545888799252
53.0,-0.13217542265706203,0.02117783963388088,0.3165093772843772,1.4577562195413254,8.914681051291671,-3.762106827661103,-0.0033558179707367823,-0.0230537122207703,0.008831311874829306,-0.735855931744856,-0.5962830372885162,0.24956997133353176,0.030792617580314697,1.2132452480933245,-1.1944822669029236,-2.34115475766799,17.81325080871582,-34.828126678466795,0.6506250210851431,181.07643757579729,,,,,,,,,,,,,1.3251265223850222,8.935397484723259,-3.4451075225484136,9.330750436782838,-51.019877166748046,53.301002197265625,-0.0019154702082718952,-0.02730395958417713,0.0072085380388220936,1.3251265223850222,8.935397484723259,-3.4451075225484136
54.0,0.06214371174573898,0.18183403592556716,0.1942400450631976,1.2440132069587708,9.02273962020874,-3.534420268535614,-0.0490847767220054,0.09121967707345686,-0.05409603920018319,-0.5222182434797287,-0.4259213495254517,0.1854910783469677,0.038647679737769065,1.2313605189323424,-1.2221686887741088,-2.323123104572296,18.647625617980957,-33.0993766784668,-1.1070000484585762,178.1115296130954,none,false,false,false,,,,,,,,,1.3006129343579016,9.218248924406447,-3.3482778768728276,10.157625370025634,-49.32825210571289,51.529877166748044,-0.04765804426855232,0.08696942800416214,-0.05570519758425284,1.3057485636137427,9.204141407012939,-3.3396406519412993
55.0,0.0658676273328727,-0.14554970390072056,0.021016440591683574,1.2218974974809909,9.050470903807996,-3.4787497006210626,4.492607889789166E-5,0.02112462850619513,0.008672030089367734,-0.7457289695739746,-0.6185384451174268,0.24349312747226043,0.035896450710282024,1.221807921634001,-1.2243737216089285,-2.323814635183297,18.72862564086914,-32.943001403808594,-1.9953750879317522,176.55130703005045,,,,,,,,,,,,,1.2873956471425938,8.904416612550325,-3.4572413300766662,10.264125423431397,-49.15762725830078,50.63212753295898,0.0014784658087952302,0.016881188700473546,0.007065594058004346,1.2873956471425938,8.904416612550325,-3.4572413300766662
56.0,-0.16327241579033802,-0.4632923142744763,0.2229919951255802,1.052805521110497,9.143308242948928,-3.3034385525354066,-0.004244975704590187,-0.001730882594654081,0.02141360347341819,-0.27546002900246347,-0.22134539927586472,0.09684200983236332,0.023373287411592208,1.2585855710624467,-1.2369368442214361,-2.229140031455767,19.70587577819824,-32.69250144958496,-0.7248750361055136,178.78543968278916,none,false,false,false,,,,,,,,,0.8893262840862765,8.679529142851877,-3.07995609599765,11.237250385284424,-48.91837715148926,51.92287719726563,-0.0028052702409160487,-0.005986641238753994,0.019781127759237207,0.8893262840862765,8.679529142851877,-3.07995609599765
57.0,-0.09406185535458374,-0.21234327249740267,0.25063844837987903,1.1011321866044812,9.037548560722202,-3.5559119827607097,0.05444046927818862,0.03542462977497737,0.0033993802890919223,-0.13379313256226333,-0.10337245756504583,0.05088572554728564,0.02311575490246326,1.265876315388025,-1.2029602305561888,-2.236496275546504,19.23637577056885,-34.14975173950195,2.062875098288059,183.48280650869256,,,,,,,,,,,,,1.0068515186910243,8.824703366148706,-3.304823679959073,10.769625453948974,-50.37262741088867,54.709127502441405,0.05588898459209664,0.031174381056081245,0.0017834164312865474,1.0068515186910243,8.824703366148706,-3.304823679959073
58.0,-0.34350304904371953,0.313821107628617,0.2751965636737866,1.3001474820741332,8.9551895538179,-3.7027910912390984,-0.002419730589049412,-0.06616715602941957,0.01022892125297849,-0.33377009689217746,-0.26955171976939285,0.11991267378377442,0.018839059196444838,1.262669859546246,-1.2095089430856232,-2.2444688046332635,19.78987590789795,-33.98175163269043,2.9640001147985457,185.02135733667404,none,false,false,false,,,,,,,,,0.9563153974324612,9.26850935492185,-3.4271244223755186,11.334375476837158,-50.19037727355957,55.637252502441406,-9.921577384731934E-4,-0.07042156813629702,0.008613971440925025,0.9563153974324612,9.26850935492185,-3.4271244223755186
59.0,-0.13818830395044357,0.019356086576247915,-0.07775899671091169,1.1474886951493282,9.04098258298986,-3.5173170753553804,0.046709158314889906,-0.00958143534267893,0.035278958452883924,-0.7402525415607527,-0.6292569923634622,0.2335787148160093,0.017554676495766378,1.2832289910783954,-1.2242622515734505,-2.2212341930352006,22.18012580871582,-32.8938765335083,2.8792501246929167,184.99461424667024,,,,,,,,,,,,,1.008922107736854,9.059843063354492,-3.5946178038915,13.742250518798828,-49.10550201416016,55.49625205993652,0.04814678214324435,-0.013837128287494773,0.033669801258325284,1.008922107736854,9.059843063354492,-3.5946178038915
60.0,-0.27757841914983145,-0.3613220447488129,0.19965368013828994,1.2382159486413002,8.981067152023316,-3.6326366019248963,-0.005124257333429143,-0.057634282788022025,0.009065471372871411,-0.10373959422111512,-0.08308961987495422,0.046160669922828676,0.020634320009557994,1.2618437325954437,-1.206512657403946,-2.225241060256958,22.233750915527345,-34.24500160217285,2.3553751051425933,183.8945418373731,none,false,false,false,,,,,,,,,0.9717327189253698,8.640933140669718,-3.457228382035057,13.768500499725342,-50.47312721252442,55.02487724304199,-0.0036784661288308627,-0.06188861474782081,0.007449503499313746,0.9604095445200801,8.619252462387085,-3.4325311613082885
61.0,-0.12786576543551156,-0.3049200643949649,0.43361479503230427,1.2464817066987355,9.02426040873808,-3.544458216311885,-0.029377351473500526,-0.0341449258387974,0.052847646186036046,-0.3946020071413003,-0.3249419933440639,0.13681267640169928,0.022874950966854834,1.253881130732742,-1.2087020698715658,-2.255614063319038,21.716250801086424,-35.83650154113769,2.4693750858306887,183.92942260963338,,,,,,,,,,,,,1.1183868170323252,8.71883719107684,-3.110422201892909,13.260375576019287,-52.05825241088867,55.13287727355957,-0.027950618190156058,-0.038391089601681964,0.05123304574759585,1.1183868170323252,8.71883719107684,-3.110422201892909
62.0,-0.0075157402396792234,0.17975277501610246,0.11855677157147133,1.3314104575921994,9.029874697770223,-3.478897984665219,-0.04177843036093548,0.04433701007955653,-0.012128309995009034,-0.4814129578004969,-0.39475638205462166,0.16069118899874169,0.024660881144215933,1.230945643812123,-1.2165768264543892,-2.283497361853571,21.664125938415527,-36.24675163269043,1.6188750741630793,182.57754206493678,none,false,false,false,,,,,,,,,1.3234960998749674,9.209139035479858,-3.359842738523932,13.172250518798828,-52.47187728881836,54.25612739562988,-0.04032794111316987,0.040086642930320666,-0.013752695419551694,1.3234960998749674,9.209139035479858,-3.359842738523932
63.0,0.07387524788432262,-0.05318620580011139,-0.06504713760360199,1.2190071449560278,9.111505891762528,-3.306139583681144,-0.022270915089267315,0.036807796678109336,-0.0365110151146972,-0.3221602287946963,-0.2665622146690593,0.10435952070881338,0.02695692157060109,1.2373522823932124,-1.231050995050692,-2.258425925292221,21.47850070953369,-34.95712661743164,1.2435000476986169,182.0413779273482,,,,,,,,,,,,,1.2924588839101203,9.057794589622349,-3.370703114014046,12.99712558746338,-51.165752487182615,53.877002258300784,-0.020838738160927107,0.032562996210106235,-0.03812289497086612,1.2924588839101203,9.057794589622349,-3.370703114014046
64.0,-0.04078354347165268,-0.4846766972222762,0.08203684326980522,1.2009659185267911,9.067498773631483,-3.4583793323819,-0.0013345587934714322,0.09144289078026571,-0.01071691116336368,-0.06908905801206532,-0.046038450581012386,0.038293911383883786,0.0259076238438109,1.2391400750320736,-1.2185415135751856,-2.226897943137896,21.68550090789795,-33.82087654113769,2.0966251058131458,183.6003122801356,none,false,false,false,,,,,,,,,1.1597926279548372,8.582315780148647,-3.3758006679392096,13.20975046157837,-50.041877059936525,54.71850219726562,1.0784330102158528E-4,0.08718982901351124,-0.012334558779519856,1.1597926279548372,8.582315780148647,-3.3758006679392096
65.0,-0.17923737562024125,-0.22191246213076418,0.3858218021489972,1.1924107606504477,8.996650050668155,-3.640791843919193,0.04048700960279972,0.03768308767957576,-0.0072457121420359495,-0.2101554572582245,-0.15827852020076677,0.0789804420634812,0.023103137379532165,1.2600439705100714,-1.1915185802123125,-2.260225125387603,20.76450084686279,-35.86462661743164,2.376000088453293,183.86450795454996,,,,,,,,,,,,,1.012825055230482,8.77424449079177,-3.254475151791292,12.286500453948975,-52.106627502441405,55.010252456665036,0.04193750003754508,0.03343272089556444,-0.008867402976451843,1.012825055230482,8.77424449079177,-3.254475151791292
66.0,-0.09155947780784439,0.05747672736498655,0.22575462016039619,1.1652942451776243,8.963567200829,-3.7015389928630755,0.013741831691695912,-0.06515321660196723,0.05228947782612378,-0.19330652730137693,-0.14940481501467087,0.07246979530535493,0.021653558702240058,1.2792464436269273,-1.198526658263861,-2.233635194161359,20.460000686645508,-37.71562644958496,2.7870000925660134,184.26695569524546,none,false,false,false,,,,,,,,,1.0734676975008173,9.020540129904653,-3.4752751658944523,12.180000457763672,-53.93812728881836,55.44825233459473,0.01517537016753513,-0.0694034651687166,0.05066806919374826,1.0734676975008173,9.020540129904653,-3.4752751658944523
67.0,-0.2468423939351509,0.2498793649939027,0.08594203013454167,1.2241582849828323,9.012991310346244,-3.56775172158043,0.06176580867602253,-0.007663604465550652,-0.004537499998239618,-0.11764194469640751,-0.0788861347897218,0.04839770451630696,0.0181625148553475,1.2722589957832109,-1.2144880389223005,-2.2299631798621453,21.261750793457033,-38.52900131225586,2.905875111222267,184.34138990705264,,,,,,,,,,,,,0.9770079621731644,9.262426116678974,-3.4812536505189273,12.783000507354735,-54.759002227783206,55.51950241088867,0.06321495124504116,-0.011907228583689122,-0.00615110335524614,0.9770079621731644,9.262426116678974,-3.4812536505189273
68.0,-0.15357694187767656,-0.03577418486569442,0.006180128420465717,1.408009963877061,8.961821247549619,-3.601467536944969,4.86014161885965E-4,-0.03330631318068741,0.06052995048518671,-0.26457784514801175,-0.2161063598651512,0.08649716701577692,0.026566862767247262,1.2535583026268904,-1.2119834691870446,-2.256170737977121,19.89600082397461,-39.64987670898437,3.0712501234561205,184.43244237587996,none,false,false,false,,,,,,,,,1.2540338853118467,8.925538595984964,-3.5947869414207982,11.434125442504882,-55.86300231933594,55.750877151489256,0.0024653746467083694,-0.039461125642992555,0.06108850033953786,1.2540338853118467,8.925538595984964,-3.5947869414207982
69.0,-0.09996818636756132,-0.5427875363148085,0.30360956446701054,1.2905416347012661,8.972256783211586,-3.647546340923498,-0.03670845617193217,-0.009674877425947902,-0.006767157533699099,-0.746298362713049,-0.6152462687822852,0.25159561471773845,0.020015316775603458,1.2547817796763807,-1.191823393991678,-2.280730157795519,18.5456258392334,-37.68225166320801,3.8883751487731932,185.8976427289095,,,,,,,,,,,,,1.190192131039751,8.42893108991113,-3.3434749063067506,10.084875392913819,-53.86312721252441,56.536502304077146,-0.03525122625789806,-0.013914460704351464,-0.008387499192145233,1.190192131039751,8.42893108991113,-3.3434749063067506
70.0,-0.13109476257152125,-0.15694226784284646,0.36254414693251547,1.3824997906591379,8.916703803866517,-3.7777202479979572,-0.03700247526832736,-0.021414602802384018,0.043718193205866486,-0.47370628749623017,-0.374839899002337,0.16822235432325625,0.02671258828345077,1.2422496559573155,-1.179920142772151,-2.3078553396112778,17.991375732421876,-37.07700149536133,2.325000094175339,183.605994460242,none,false,false,false,,,,,,,,,1.250983884338947,8.759269564759498,-3.4146854433358884,9.530250434875489,-53.293877334594725,54.98962715148926,-0.03554987616486626,-0.025668936246766312,0.042092696270250744,1.250983884338947,8.759269564759498,-3.4146854433358884
71.0,-0.03876452734458677,0.1761060860930103,0.12222888623133744,1.3737059849323612,8.927343019164434,-3.7366726374862216,-0.007518014044263491,0.021125123397830653,-0.004529411694509726,-0.46568581019297683,-0.378466267396908,0.16848404971089695,0.02558481176573977,1.27372678435675,-1.1826505401346943,-2.2820841109398566,18.46387565612793,-37.32712646484375,3.086250116825104,184.72790530199657,,,,,,,,,,,,,1.3346005574440454,9.102950950660327,-3.61397244847647,9.980250453948974,-53.55750228881836,55.748252334594724,-0.0026506190142124007,0.016459158695496544,-0.011306311557124747,1.3346005574440454,9.102950950660327,-3.61397244847647
72.0,0.05049362722966893,-0.027651293753354133,0.038561534976550176,1.093590800668679,9.082238795710545,-3.438010339643441,-6.507435573799775E-4,0.08134554505883025,-0.03900371215278559,-0.5509282642719793,-0.46525803383658915,0.18394865796846502,0.029918608112162546,1.2932786906466764,-1.230979953326431,-2.23726365145515,20.631375885009767,-37.024501724243166,3.459375113248825,185.3307649010129,none,false,false,false,,,,,,,,,1.1436324072453905,9.054009241216322,-3.3989383952290404,12.164625549316407,-53.25412727355957,56.09287727355957,7.909667115695405E-4,0.07710210449698537,-0.040621038406423414,1.1436324072453905,9.054009241216322,-3.3989383952290404
73.0,0.017446982078254222,-0.3176788157969713,0.07678316008299589,1.1991876697540282,9.098391857147217,-3.350976912975311,-0.03286794497456291,0.04238539717464459,-0.017510149060831506,-0.7433656722307205,-0.623715004324913,0.23718794137239457,0.03170189001597464,1.2374279010295868,-1.2321177637577057,-2.292660813331604,21.375000801086426,-37.58737648010254,3.7916251277923583,185.7697345537203,,,,,,,,,,,,,1.2024416360211108,8.758048954576548,-3.266801138325493,12.918375549316407,-53.802377166748045,56.438627319335936,-0.03142079205648734,0.038137871278726525,-0.019127475019396826,1.2162660524528475,8.780229439735413,-3.273679648041725
74.0,-0.10843750863226459,-0.33070705599133293,0.2473837321432417,1.1748486441724442,9.044812810187246,-3.5280337286930457,0.04347042140025314,-0.006963489300543719,0.02179715391893936,-0.7408363678876091,-0.6239327472798964,0.24451495064239875,0.030172206100770364,1.2687254454575332,-1.2223980777403887,-2.2701344747169343,22.74000072479248,-36.829876556396485,3.4758751463145017,185.38865901522723,none,false,false,false,,,,,,,,,1.065983876595091,8.713648936327766,-3.280131038789656,14.282250556945801,-53.04262725830078,56.07487754821777,0.04491212833580552,-0.01121373717110641,0.02018118759912282,1.065983876595091,8.713648936327766,-3.280131038789656
75.0,-0.2740773347824222,-0.08431084468813226,0.4295242366353326,1.5327810845752754,8.993419826620876,-3.52817703945802,0.0385283080304005,-0.0033390930050290098,-0.013353674544715415,-0.23572449518902466,-0.17699865657504243,0.0850968713512515,0.030165514684545043,1.170318329688346,-1.217272419740658,-2.340437671925762,21.134625816345213,-37.5881266784668,0.9078750397264957,181.47701569404026,,,,,,,,,,,,,1.2583530301246608,8.908647475856366,-3.098113511458482,12.624000587463378,-53.814752197265626,53.50237716674805,0.03997745100573143,-0.007594854461357874,-0.014971323913949378,1.2583530301246608,8.908647475856366,-3.098113511458482
76.0,-0.1760450791311907,0.2630916968645418,0.4437197488093493,1.4909455805432563,9.003014658011642,-3.4753874259836532,0.03228527194552935,-8.740098685911386E-4,0.021599752962183538,-0.6770330100667243,-0.5590445679776809,0.2030911073088646,0.022575313671076597,1.17415685747184,-1.2236264383091646,-2.328157251956416,16.799625663757325,-36.25237663269043,-0.5692500235140323,179.0694457043666,none,false,false,false,,,,,,,,,1.3144074188654913,9.265638669331869,-3.031150136508194,8.301000308990478,-52.42650260925293,52.09237693786621,0.03372834171952292,-0.005125619360420964,0.01999467641281167,1.3144074188654913,9.265638669331869,-3.031150136508194
77.0,-0.21181981145671688,0.2379889577110805,0.1438520463508563,1.4617761609577897,9.041001763674291,-3.4137318157913663,-0.018371078729008634,-0.05219068474081509,0.01307867640885068,-0.749034039454885,-0.6186963012903044,0.2326762769186851,0.030528068925152616,1.1890583958956276,-1.2286393005068938,-2.3328551443496552,16.82812557220459,-32.89875156402588,1.8652500826120377,183.30800466571395,,,,,,,,,,,,,1.2495475856882363,9.278486620081534,-3.269370437258541,8.40150032043457,-49.09500213623047,54.54600227355957,-0.01692732846291334,-0.05643161642821688,0.01146372637766249,1.2495475856882363,9.278486620081534,-3.269370437258541
78.0,-0.15058316573463748,-0.14775630240190293,-0.14534413209646055,1.4770502594171786,9.038567140990613,-3.417172296374452,0.05339220222454555,-0.009581435398005022,0.001813365745883767,-0.7469518314493765,-0.6212861691371049,0.2337119586691998,0.016995118936698993,1.2272610215857478,-1.21412990825011,-2.2769403481247403,20.778000869750976,-32.19450145721436,3.8805001831054686,186.87254756512723,none,false,false,false,,,,,,,,,1.3128162425595755,8.889843071208281,-3.5557501596563004,12.342375469207763,-48.42187690734863,56.52450233459473,0.0553808757616207,-0.00949437546543777,-0.003327500270679593,1.3128162425595755,8.889843071208281,-3.5557501596563004
79.0,-0.23230596276931464,-0.5339890958368778,0.3821220116596669,1.4970898091793061,8.992957792282105,-3.520990788936615,-0.0472741327432934,-0.05161559130848929,0.04314368685689008,-0.6321498149633408,-0.5141788411140442,0.20048430919647217,0.026691879896025058,1.1764016771316528,-1.21855886220932,-2.3408511519432067,21.487125816345216,-34.96350158691406,3.1815001225471495,185.16636673840338,,,,,,,,,,,,,1.2644220630452037,8.458473405838014,-3.138381139039993,13.039875564575196,-51.1946272277832,55.84912727355957,-0.0468740194314616,-0.05426666522215979,0.04135245072892776,1.2644220630452037,8.458473405838014,-3.138381139039993
80.0,-0.10076663734427854,-0.14071517510741366,0.2884132732664618,1.4684118260355556,9.00587246464748,-3.497563172789181,3.022279839335692E-4,-0.015163120546258322,0.05655470133602324,-0.7512470063041238,-0.6154334030899347,0.23367450152542077,0.035595431293853945,1.1616621134327907,-1.2286634375067318,-2.3690732460395965,21.83437572479248,-36.479251861572266,2.2432500755786897,183.52601478684267,none,false,false,false,,,,,,,,,1.3672941755366457,8.864648940516453,-3.2086413043971156,13.372125606536866,-52.69800224304199,54.88275215148926,0.0017357672205065738,-0.01941336641586063,0.05495098935403299,1.3672941755366457,8.864648940516453,-3.2086413043971156
81.0,-0.06328891201273483,0.057694061054373344,0.13176887263269985,1.485251608432508,9.077571588404039,-3.306764941589505,0.012062254982690016,0.017252205487559822,-0.025732721142726494,-0.752380440048143,-0.6165772711529451,0.22573871530738532,0.03990554870288892,1.1315000805200315,-1.2430401678178824,-2.3934961908003864,21.10762580871582,-36.613501358032224,1.1336250387132167,181.8111857210095,,,,,,,,,,,,,1.421433889909702,9.13476959396811,-3.1744883755842843,12.613500423431397,-52.84200248718262,53.76412727355957,0.013511396962784085,0.013000488559733712,-0.027353064444683054,1.421433889909702,9.13476959396811,-3.1744883755842843
82.0,0.06994033457324056,0.10452905791525793,0.2168890631407278,1.5964322019331525,8.988726464828643,-3.5187480520493915,-0.043857107432011294,0.10831629926357053,-0.05801691092989024,-0.7569626593353724,-0.6083662633848662,0.23098051326699776,0.04418766334431597,1.0992374597209515,-1.2307522450343218,-2.440248942611241,19.66237564086914,-36.50850143432617,1.5712500575184822,182.49060102828454,none,false,false,false,,,,,,,,,1.6659089939871636,9.092774698049714,-3.3013412680956398,11.46637544631958,-52.72762733459473,54.21562713623047,-0.04242009840284785,0.10406862848949637,-0.05963860057732638,1.6659089939871636,9.092774698049714,-3.3013412680956398
83.0,-0.005174900395978315,-0.16597459308218723,0.08113956506199696,1.3593698389389937,9.092209507437314,-3.3282928957658657,-0.009774753187626306,0.01369962858331233,0.004741706654872045,-0.7503817344413084,-0.6189641952514648,0.2265299142283552,0.041616558517311136,1.1453454015301723,-1.2481540476574617,-2.3830305244408403,21.180750732421874,-35.44087677001953,1.337625045105815,182.16533467400305,,,,,,,,,,,,,1.353691247383169,8.925763663123636,-3.246698688058292,12.71775053024292,-51.6543773651123,53.97637725830078,-0.008322153862860828,0.009448020631392108,0.003131188406138727,1.353691247383169,8.925763663123636,-3.246698688058292
84.0,-0.1409274966935489,-0.5092979106685552,0.20349131668410678,1.3537131123023458,9.090958425314119,-3.3540123240782482,0.003499508346887488,0.01816213252388087,0.01252058805331734,-0.7540288060018332,-0.6159392943476686,0.22406898896292884,0.034176910794017336,1.126453714795632,-1.236822498906957,-2.387786072079498,20.66212558746338,-35.88787658691406,1.7966250647604465,182.88398048717463,none,false,false,false,,,,,,,,,1.212304506819732,8.58113954090836,-3.1500343172857077,12.189375438690185,-52.11112716674805,54.43275230407715,0.004936518503681701,0.013919854322083149,0.010904289905310553,1.212304506819732,8.58113954090836,-3.1500343172857077
85.0,-0.13885788984670497,-0.11443831104010639,0.3529566239639379,1.2289896400848237,9.118939276969078,-3.2892481596163003,0.046138124889694154,0.00875049974769354,0.00949025044683367,-0.7480618009472838,-0.6221933718955163,0.2252751973891022,0.0375757920325245,1.1664242555599402,-1.2491275190126778,-2.354269700475258,20.86237579345703,-35.47087646484375,1.4527500578761101,182.34106958584078,,,,,,,,,,,,,1.098205942779268,9.015776825886146,-2.90454719014758,12.408750495910645,-51.67987716674805,54.07350234985351,0.04756675031036139,0.0045017490908503535,0.007867750246077776,1.0897916437836714,9.003952333242585,-2.9358001326644185
86.0,-0.09633735666918282,0.11545017339510492,0.22559871832554293,1.2479856037857509,9.124900071927817,-3.2836907570905023,0.022202205958356168,-0.021358333756307177,0.008055883455181531,-0.7483189117790449,-0.620439366538926,0.2298826718389398,0.037194019994965875,1.176640525902852,-1.2418641111638287,-2.3504197621109464,21.800250701904297,-35.8807511138916,1.1778750452399254,181.8851766822487,none,false,false,false,,,,,,,,,1.151257476446652,9.239856394210664,-3.0575570841827013,13.340250606536864,-52.09950225830078,53.82337730407715,0.02364595579074732,-0.025610049250626973,0.006439582216462084,1.151257476446652,9.239856394210664,-3.0575570841827013
87.0,-0.09972820276686666,0.17618836438758115,0.31530909094156,1.3771182316191055,9.108579373827167,-3.2451958656311035,0.019959281609015594,-0.001184404776938776,-0.0026506196873465385,-0.7512883806929869,-0.619512654987036,0.2202016173624525,0.041934157046032886,1.1229629084175707,-1.2554326069121267,-2.3967225574979594,21.727875785827635,-36.11325134277344,1.1535000454634428,181.82210920033594,,,,,,,,,,,,,1.2769985909153725,9.284304885303273,-2.9294604215697917,13.260375537872314,-52.33087715148926,53.80350242614746,0.02139690440000579,-0.0054346535696030256,-0.004270668422784841,1.2769985909153725,9.284304885303273,-2.9294604215697917
88.0,-0.17708251522715654,0.025147017644773617,0.009377128121876481,1.370761244603903,9.046536266213597,-3.426090618171314,0.017524509882444844,-0.006314215862064385,0.035342892499494495,-0.751374619432015,-0.6144572354779385,0.2325654643596989,0.04346557411983019,1.1462295397673503,-1.2378294102036127,-2.39437207137004,22.320375900268555,-36.312376480102536,1.5776250647753478,182.51956240683046,none,false,false,false,,,,,,,,,1.1933228305845271,9.071185060066751,-3.416174420035712,13.865625514984131,-52.52775192260742,54.209627380371096,0.019337128580427996,-0.013451856611720702,0.035436879668274135,1.1933228305845271,9.071185060066751,-3.416174420035712
89.0,-0.19594411426862957,-0.482782962060917,0.2530124016909623,1.6257235939596213,8.934197912029191,-3.5822992558572806,-0.07902710319100188,-0.06201658415432909,-0.004894184870737614,-0.4450103880143633,-0.34904130183014215,0.15779812780081057,0.03953535284495493,1.151911969278373,-1.2079170486506294,-2.3987896185295257,21.21412582397461,-36.98025184631348,1.1268750435113908,181.7517003886054,,,,,,,,,,,,,1.429263301860249,8.450940099416995,-3.3288119152352653,12.736125545501709,-53.19937713623047,53.82075233459473,-0.07757858911270996,-0.0662695534093914,-0.0065101472439594785,1.429263301860249,8.450940099416995,-3.3288119152352653
90.0,-0.2566718937884463,-0.13455136806362927,0.37036051022091715,1.724484688574725,8.838533750855097,-3.7862443994767596,0.026577939973304085,-0.015165439400566267,0.07895196008258591,-0.44738396795669405,-0.34252520126871544,0.15215642514205216,0.024854970250251626,1.1479108209657196,-1.1739402997611772,-2.3901712752804896,20.52825061798096,-37.272001571655274,3.544500164985657,185.43892761170397,none,false,false,false,,,,,,,,,1.4674173865633289,8.703474134501844,-3.4153961979295357,12.08812536239624,-53.48025207519531,56.19225227355957,0.02802034467458725,-0.019418504961090637,0.07733970420325503,1.4674173865633289,8.703474134501844,-3.4153961979295357
91.0,-0.06423494352173864,0.16633306341428383,0.06276618337770011,1.518332578387915,9.026817920161228,-3.439586566943748,0.017273266274150056,0.02963056762029629,-0.021689602902325075,-0.7546423036678165,-0.6140739099652159,0.22873371664215536,0.02094629408298608,1.15681158210717,-1.2135476995916927,-2.345710649209864,23.172375831604004,-37.57275146484375,2.9272501277923584,184.4625372815175,,,,,,,,,,,,,1.4536883027530183,9.192646031286202,-3.376316351633446,14.693250617980958,-53.8181273651123,55.54275230407715,0.018710891494877858,0.025378960968539265,-0.023308292271034554,1.4536883027530183,9.192646031286202,-3.376316351633446
92.0,0.030758317499421536,0.028789964839816093,0.23341062029823662,1.5001265013217926,8.947583999633789,-3.6244216656684873,-0.10083650998162604,0.0751172033608845,-0.03935495052615752,-0.7541276675462723,-0.6115278500318527,0.23440229907631874,0.02833754983730614,1.15543850004673,-1.2136323308944703,-2.3665192317962647,21.719625854492186,-38.99325157165527,0.5557500185072421,180.8017409939458,none,false,false,false,,,,,,,,,1.5230391876827372,8.966424177188685,-3.394308565866829,13.209750556945801,-55.22737724304199,53.21587745666504,-0.09940705309151718,0.07086287249838656,-0.040964109034710885,1.5304290790855886,8.975868415832519,-3.3905311501026154
93.0,-0.08478555754831463,-0.4225143818002121,0.1400795920441548,1.390507885054046,9.06404047386319,-3.3888056114608167,-0.0075570545574226,-0.014822772353666254,-0.014558664255655638,-0.45970579280572776,-0.37084824022124796,0.14077454907637016,0.025304098185634026,1.1634524230863534,-1.2186943514674318,-2.34591923975477,20.808750686645507,-39.04312675476074,1.5191250651329755,182.2472104566237,,,,,,,,,,,,,1.3052397692466484,8.641053325989667,-3.2482060240764246,12.334125442504883,-55.261502227783204,54.17400230407715,-0.006107177991088074,-0.01907438044390171,-0.01618007554368365,1.3052397692466484,8.641053325989667,-3.2482060240764246
94.0,-0.23644495842111582,-0.2065496375867267,0.3510251375293304,1.4803327322006226,9.051273610332224,-3.3978569767262674,0.08735024579800665,-0.006296691813451403,0.022822303925732187,-0.09674336827627503,-0.08277202478729852,0.020806554963092992,0.012099871339087978,1.1298819603306232,-1.2048172006512632,-2.3265397713916136,20.40150093078613,-38.77725151062012,3.4650001204013825,185.07688964134502,none,false,false,false,,,,,,,,,1.243363424250395,8.844249947236316,-3.0463174542799445,11.933625507354737,-54.98625236511231,56.075627136230466,0.0887980379538574,-0.010541666394976132,0.021203309649090264,1.243363424250395,8.844249947236316,-3.0463174542799445
95.0,-0.03288749011470845,0.08522947211110708,0.3506011450206678,1.4855298733010012,8.976963370454078,-3.579187082309349,-0.016796782114865755,0.06409269774166665,-0.006947153390818598,-0.16586134422059154,-0.1256522349282807,0.057290373917888195,0.017732186229812784,1.1498281534980326,-1.197579658498951,-2.3334262908673753,19.605000686645507,-37.856251068115235,3.292500166893005,184.9907576839271,,,,,,,,,,,,,1.4521427217085718,9.06167101392559,-3.2281310254452276,11.136750450134278,-54.06375228881836,55.94512733459473,-0.015353712502239955,0.059839726596296126,-0.008554950766818652,1.4521427217085718,9.06167101392559,-3.2281310254452276
96.0,-0.17267677234716272,0.21765034498259572,0.08944659324657947,1.3642220815809647,8.959357790427633,-3.659987182900457,0.008604534057096816,-0.0433502458127252,0.0425198524277292,-0.13099374747512363,-0.08869344114076973,0.06426095239596792,0.023024415794706966,1.2037466729041373,-1.1950653508158013,-2.283857218109735,21.2010009765625,-37.18837615966797,4.567125165462494,187.05763097572049,none,false,false,false,,,,,,,,,1.1911262942680922,9.176586094469126,-3.5700358105177927,12.711375503540038,-53.33475219726562,57.21037727355957,0.010045587664981391,-0.04759926554819971,0.04089816188092763,1.1911262942680922,9.176586094469126,-3.5700358105177927
97.0,-0.20516328296313682,-0.08954404809457414,-0.04258518308108928,1.4783047560383291,8.983925641751757,-3.558852230801302,0.0600686275409352,-3.6262178464847454E-4,-0.03616519435308874,-0.46302130701495153,-0.3612482056898229,0.15586595105774262,0.02191697046880875,1.1724516807817946,-1.204470433440863,-2.337305241940068,21.852750816345214,-38.30362655639649,3.3431251358985903,185.00352038459684,,,,,,,,,,,,,1.2726868280008727,8.893903367659625,-3.6009678209529206,13.375125560760498,-54.5362525177002,55.96537712097168,0.06151237742354473,-0.004611641314684176,-0.037765317491493096,1.2726868280008727,8.893903367659625,-3.6009678209529206
98.0,-0.16718300722428772,-0.5364254089348978,0.3061682826707988,1.4020623423085354,9.032365789507875,-3.4627342979506692,-0.008516750889830291,-0.04991250121034682,0.0848429992608726,-0.365456223487854,-0.29525159255112754,0.11955112115581437,0.019599920463757498,1.1936424781780433,-1.204028343210126,-2.3113438894252964,21.461625709533692,-38.64675155639648,3.001500117778778,184.4641137695135,none,false,false,false,,,,,,,,,1.2390985845715976,8.52089893584158,-3.1583148678947315,13.016250553131103,-54.84000228881836,55.661627197265624,-0.0070894986810162665,-0.054165376243181525,0.08323012506123632,1.2344762931144473,8.495422679598969,-3.1560803610130703
99.0,-0.15869871200532606,-0.13291829239374192,0.3083759262641468,1.5081483037164896,8.95772933959961,-3.6059442203823884,-0.08978480310635824,-0.05784840656298341,0.02248259820957102,-0.3193394099131669,-0.26305753582775004,0.09946911981200228,0.020414287019244366,1.1884865300490124,-1.195114555925426,-2.298052733487422,21.828750839233397,-37.581376266479495,3.8670001517236234,185.87116826348054,,,,,,,,,,,,,1.3491267969700425,8.824317696070906,-3.2970892716162274,13.363500556945802,-53.7885026550293,56.5590022277832,-0.08833970509323419,-0.06210012095706428,0.02085821115977916,1.3491267969700425,8.824317696070906,-3.2970892716162274
100.0,0.07179786155329031,0.16656212042104088,0.12223262383885608,1.49800022910623,8.927437118455476,-3.696558204351687,0.02331646021898135,0.0667787127906807,-0.01861559394931439,-0.22639896647602903,-0.16963879968605788,0.08246237200264837,0.01732817646138845,1.1774550956838272,-1.1805656201699202,-2.3055374295103785,21.64237579345703,-36.955126724243165,4.987125177383422,187.71661646212453,none,false,false,false,,,,,,,,,1.5692662533883954,9.093557811250873,-3.573785469228146,13.16812557220459,-53.17200233459473,57.61350234985352,0.02475272251827882,0.06252846604508192,-0.020238365646045985,1.5692662533883954,9.093557811250873,-3.573785469228146
101.0,0.012754060311869967,-0.10730033847365049,0.05595355645043425,1.2650328685741614,9.142311020652846,-3.2227839739015787,-0.01619399495094138,0.05389865177373091,-0.020304166634256642,-0.2311394167418527,-0.18814266377156325,0.07461176311025525,0.013544524676557791,1.1819925579694237,-1.2410536921850526,-2.2485187596613816,25.139251289367675,-35.298751525878906,5.003250188827515,188.0668889276297,,,,,,,,,,,,,1.2774668919236059,9.034464812514805,-3.1663293472611076,16.695000705718993,-51.51375228881836,57.64087730407715,-0.014758332883573923,0.04965097943832185,-0.021917769639734543,1.2774668919236059,9.034464812514805,-3.1663293472611076
102.0,-0.14378971664472392,-0.45590284512396534,0.236874684484849,1.1973138103882472,9.196650991252824,-3.1006603661705467,0.00463824132734006,0.018416831191481634,0.009916335215220357,-0.1212327684841904,-0.09211163427315507,0.039498606441067716,0.01740856860609104,1.2048791471649618,-1.2490045685394138,-2.237381039881239,28.48237621307373,-34.99912643432617,3.683250142931938,186.05653697062237,none,false,false,false,,,,,,,,,1.0530868149214132,8.740287135629092,-2.863251609545128,20.043375663757324,-51.22725242614746,56.306252059936526,0.006077228390639371,0.014163862457406699,0.008303093359722654,1.0530868149214132,8.740287135629092,-2.863251609545128
103.0,-0.2130123501502918,0.10366776334767294,0.20670419513238686,1.223184298170675,9.191987981890687,-3.0659282490758613,0.05487598011306688,0.01288860171631563,0.0018697288617783902,0.12493746351487565,0.1056123930628937,-0.03904221951961517,0.022323663368081156,1.1891934364148886,-1.2340880620597612,-2.248438492859944,29.874751319885252,-36.48525146484375,2.2968750885128975,183.63793724568353,,,,,,,,,,,,,1.009852023348028,9.295136574471352,-2.8587164719506064,21.40875087738037,-52.710002212524415,54.88875228881836,0.05631433869255524,0.008642277433810866,2.534315127002842E-4,1.009852023348028,9.295136574471352,-2.8587164719506064
104.0,-0.2747414110062441,-0.013468154314167724,-0.16570761639827697,1.906480050323033,8.833680176498866,-3.6120690992563076,-0.37769599761348216,-0.271236622389406,-0.26214100027922543,0.09250609709484743,0.05668955451191062,-0.004295911381740381,0.04928931702011366,1.1331823491814113,-1.1531105354280755,-2.2798474259895856,26.59500114440918,-38.20462654113769,2.775375092923641,184.01081023510764,none,false,false,false,,,,,,,,,1.6310765516085952,8.813657774644739,-3.778086933435178,17.993625717163084,-54.44812744140625,55.62300254821778,-0.3762591237621382,-0.2754881235491484,-0.26376624951604755,1.6313748330910607,8.819694485994848,-3.7772764073740137
105.0,0.03718280996251298,0.1424982267994397,0.1950866061050703,8.505582785842442,1.6987455768123416,-2.1731185746738815,-1.2996823541893094,-1.2379124918952584,-0.025742158745689428,0.7395668124208356,0.13003125735258886,-0.06355227770152419,0.5907379229470054,0.2670235666630808,-0.19466540553966666,-1.764511206362507,-24.35512610912323,-9.709500353336335,37.45950141906738,257.1892056535042,,,,,,,,,,,,,8.543959901332855,1.8339270790480078,-1.9390815824270249,-33.44625132530928,-25.48462606430054,90.22687850952148,-1.298248034993223,-1.242162859012537,-0.02735036976781546,8.542227138387094,1.840739187240453,-1.9779030539021634
106.0,-0.06822212599217892,-0.08860825057490729,0.12791849952191114,9.49562793970108,1.3474461138248444,2.0126689299941063,-0.06072343746200204,-0.07257421803660691,0.011223436566069722,0.6351949945092201,-0.016961812158115208,0.12963762413710356,0.7611976154148579,-0.19475777633488178,-0.17673783283680677,-1.4081229120492935,-47.38593912124634,4.0101563930511475,29.65312623977661,277.6991674847754,none,false,false,false,,,,,,,,,9.426881790161133,1.2582469433546066,2.1401251032948494,-55.95000219345093,-12.229688048362732,82.18359661102295,-0.059314061887562275,-0.07681953068822622,0.00961640675086528,9.426881790161133,1.2582469433546066,2.1401251032948494
