seconds_elapsed,accelerometer_z,accelerometer_y,accelerometer_x,gravity_z,gravity_y,gravity_x,gyroscope_z,gyroscope_y,gyroscope_x,orientation_qz,orientation_qy,orientation_qx,orientation_qw,orientation_roll,orientation_pitch,orientation_yaw,magnetometer_z,magnetometer_y,magnetometer_x,compass_magneticBearing,network_type,network_isConnected,network_isInternetReachable,network_isWifiEnabled,network_isConnectionExpensive,network_ssid,network_bssid,network_strength,network_ipAddress,network_frequency,network_cellularGeneration,network_carrier,totalAcceleration_z,totalAcceleration_y,totalAcceleration_x,magnetometerUncalibrated_z,magnetometerUncalibrated_y,magnetometerUncalibrated_x,gyroscopeUncalibrated_z,gyroscopeUncalibrated_y,gyroscopeUncalibrated_x,accelerometerUncalibrated_z,accelerometerUncalibrated_y,accelerometerUncalibrated_x
0.0,0.08660976456037613,-0.4632175277507994,-0.42050940122565517,9.092212461656139,3.521872963956607,-0.2888107011219867,-1.3787494584397282,-0.45275940774108775,0.2628970423523056,-0.4694314193661495,-0.09999660272351517,0.16221354813665473,0.8296546122079255,0.009365201558994745,-0.3876140151293047,1.038038739273625,-43.05652344745138,4.786956660125567,-23.06372373000435,77.20218111568545,,,,,,,,,,,,,9.182274644092846,3.055674341417128,-0.7111677801817335,-51.525002189304516,-11.430163485848386,29.575680649798848,-1.377303479659942,-0.45700268412349365,0.26128400303423405,9.182274644092846,3.055674341417128,-0.7111677801817335
1.0,0.06527842162638017,0.8010090740932392,0.18020463111524535,7.042242283868317,3.9411389143160074,-4.2447983179942215,-0.8747615125943341,0.29962598082299036,1.1835811207226168,-0.5053962663848801,-0.01178353479002962,0.0934334158307255,0.23924710769044918,0.592293707008409,-0.4619896470910252,0.72417682704359,-23.87475101351738,-29.648626289367677,5.417625150680542,185.5507939928264,,,,,,,,,,,,,7.107038953516743,4.741650223916415,-4.064116536390664,-32.34300105333328,-45.86400161743164,58.06012722015381,-0.8733231521339393,0.2953756123817727,1.1819688604605914,7.107038953516743,4.741650223916415,-4.064116536390664
2.0,0.9520679546392286,-0.1860491226737698,-0.8026562037275118,1.1879460871922691,8.974424698773552,-3.5862433185764386,0.35940321498449046,-0.5695617551601833,0.18654665951202115,0.710698744245604,0.6746156174762576,-0.13581215655978987,0.10586007841515775,1.448460483083538,-1.2212098445378097,-1.7377259614420872,23.143875999450685,-31.94550136566162,20.144625740051268,212.00766573745707,none,false,false,false,,,,,,,,,2.1395765715826522,8.78788129488627,-4.3883722865698385,14.677500667572021,-48.162001953125,72.78862823486328,0.36084220200168465,-0.5738133627340419,0.18494022338383712,2.1395765715826522,8.78788129488627,-4.3883722865698385
3.0,-0.05624574422836304,-0.4562756775666286,0.067108792783047,1.4861053452633395,9.377474548793074,-2.3048136706399447,-0.053967401805315535,-0.0773356613867423,0.07124522054458365,0.7063660521318417,0.6901665908275264,-0.0463750492965821,0.14399372292037058,1.4053437107860451,-1.2984494206928971,-1.59645145482356,22.422375831604004,-30.899626388549805,22.828125839233397,216.29993567156944,,,,,,,,,,,,,1.4294748220334548,8.920671203348896,-2.2372129866392307,13.954125652313232,-47.116876678466795,75.47512741088867,-0.052523652274234625,-0.08158602697007797,0.06962622459703947,1.4294748220334548,8.920671203348896,-2.2372129866392307
4.0,-0.10938125297281087,0.11613301208754089,0.38398365932060224,1.014506582828129,9.433297007691626,-2.368197554466771,-0.059649133948738324,0.16410692840685495,0.04838230175491754,0.6955323949748394,0.6981280294119143,-0.051241666480314495,0.1551953427055303,1.5063091154192008,-1.2771523022184186,-1.4863798478070427,24.312750930786134,-28.6038761138916,24.9735009765625,221.0202366204073,none,false,false,false,,,,,,,,,0.9048897493174117,9.548931322845759,-1.9837559723094398,15.846000652313233,-44.82112640380859,77.61787796020508,-0.05820197980426768,0.15986348943102477,0.04676361270894361,0.9048897493174117,9.548931322845759,-1.9837559723094398
5.0,0.11736244244655447,-0.26163945391331567,-0.12529963940050048,1.0189480923189975,9.421366219473358,-2.4316277976083285,0.04694816237772066,0.060334189995831136,-0.04485870088797574,0.6963968731389187,0.6978778496827229,-0.062107316670146316,0.1532403066164196,1.5087312932061676,-1.2645082320317182,-1.5023022547806844,26.195251083374025,-28.435500984191894,22.063500900268554,217.77137923814828,,,,,,,,,,,,,1.1359574840505524,9.159252917412484,-2.55642041239408,17.72775074005127,-44.652376861572264,74.7086279296875,0.04838247500433057,0.05608517133776902,-0.04647230344605358,1.1359574840505524,9.159252917412484,-2.55642041239408
6.0,-0.22122052498161793,-0.44982682889567155,0.11643874302211374,0.9729630249738693,9.304577569961548,-2.890392906665802,0.030849499623291195,0.09658137382473797,-0.01893374912906438,0.7039107060668492,0.6884672966333899,-0.09235714833335121,0.14704662148315129,1.4672248186451373,-1.2296988692614113,-1.595796534330538,24.31800090789795,-30.10537628173828,20.05350070953369,213.6412957065766,none,false,false,false,,,,,,,,,0.7599265052955232,8.839790082445331,-2.790641312505685,15.852000617980957,-46.322251052856444,72.69637832641601,0.03650972173746788,0.09340694308224501,-0.02414999929999914,0.7517480546848314,8.853203844315935,-2.776846172785995
7.0,-0.28007820067817674,0.31674240021875094,0.023788472491444324,0.8450035444077324,9.254212987189199,-3.079469122138678,0.004887989621755539,-0.06605527096647112,0.050604043916488685,0.6898646769570369,0.7003938859584284,-0.09164298983181224,0.15540599983696843,1.5691842460164838,-1.218611127021266,-1.4807363327811747,25.01550106048584,-28.550626068115236,21.73275085449219,217.1983801119153,,,,,,,,,,,,,0.564720615927203,9.570423991072412,-3.0551633773207225,16.54987565994263,-44.76562637329101,74.37675308227539,0.006326348406682704,-0.07030833405259923,0.048986396478379476,0.564720615927203,9.570423991072412,-3.0551633773207225
8.0,-0.02835110047518617,-0.34402966332889284,-0.06618724929371683,0.648657299061813,9.253991863515118,-3.0878421764562627,-0.03958921371411313,-0.10127683634888016,0.014763724752793125,0.684942612553587,0.7046673911632878,-0.07722661352836259,0.1647844767511481,1.587605867055383,-1.2251635388572617,-1.4280133448024788,27.078751068115235,-27.759001045227052,22.7441259765625,219.26958805274143,none,false,false,false,,,,,,,,,0.6200658713956133,8.909406364554226,-3.153561531188022,18.61050079345703,-43.97475158691406,75.38812774658203,-0.03261744977426854,-0.10876930514258323,0.009989850845482975,0.6200658713956133,8.909406364554226,-3.153561531188022
9.0,-0.20325723298204443,-0.5403297691441634,0.10117219628620089,1.0731254307662739,9.347554618237066,-2.679098761549183,0.017860024798624585,0.004982671866396276,-0.06412537124856274,0.6974450034253737,0.6905176277254143,-0.051124754891383885,0.18329430503003738,1.4479924113142724,-1.2369638342483371,-1.5036576752569162,25.01100101470947,-29.263126029968262,22.414500885009765,217.39255565071508,,,,,,,,,,,,,0.8696750355884433,8.806737175174788,-2.5774133509280635,16.543125705718992,-45.479626693725585,75.0581282043457,0.01929084192223773,7.297028787434101E-4,-0.06574678210320302,0.8696750355884433,8.806737175174788,-2.5774133509280635
10.0,-0.2685007426316048,0.12753386337005782,0.3470752994981733,1.159290304278383,9.229164463458675,-3.038272553151197,-0.02128149516533549,0.08844889505017622,0.003410539366122262,0.7058381810046659,0.6837921585186874,-0.07110354496110784,0.16795007899256037,1.410350257807439,-1.2287598565073297,-1.5920230716761976,23.041875801086427,-31.102501182556153,19.37175075531006,211.80919859997434,none,false,false,false,,,,,,,,,0.8905544970000144,9.356189567263764,-2.6907179694954713,14.576250648498535,-47.3197518157959,72.01537811279297,-0.019836397485478836,0.08419852701070554,0.001790195735463617,0.8905544970000144,9.356189567263764,-2.6907179694954713
11.0,-0.14531024921612412,0.0517969408903417,0.05735889230580891,1.2152186760715409,9.28402546340344,-2.833260232327031,-0.027158291461776094,-0.003034528335648598,0.011624875791961014,0.7049445720279918,0.6872019119122449,-0.07719165714932423,0.15534528330260633,1.4388286903792737,-1.238104874012517,-1.5905736404306747,24.40875102996826,-31.63950134277344,19.68300090789795,211.84260157716741,,,,,,,,,,,,,1.069625044205025,9.335332819059783,-2.775485415376869,15.942750701904297,-47.85600189208984,72.32737823486327,-0.025723390852903375,-0.007286138869453185,0.01001707937494658,1.069625044205025,9.335332819059783,-2.775485415376869
12.0,0.0013108622841536998,-0.17970004595816136,0.07646317935083062,1.2761458058168393,9.22455854699163,-2.992992077723588,0.03866446055654509,0.03867928916131895,0.048356862697640765,0.7100665426254272,0.6780913472175598,-0.08043920952826739,0.1696247285604477,1.3805358505249024,-1.2115018212795257,-1.6326708567142487,20.707125930786134,-31.914001426696778,19.97475067138672,212.03048702505592,none,false,false,false,,,,,,,,,1.2863525345110067,9.034697952837046,-2.9127432155137014,12.237000484466552,-48.131627044677735,72.61837860107421,0.04062103920865177,0.03445668221626541,0.04461398454253922,1.2863525345110067,9.034697952837046,-2.9127432155137014
13.0,-0.293822344001063,-0.42059289460417393,0.16949563842739307,1.0756889184315999,9.26744084264718,-2.9166889050427605,0.06255296990275383,-0.0173903459286557,-0.020876856009005615,0.7053303443918041,0.6836381075428981,-0.06333981352109536,0.17471430377632963,1.397112884942223,-1.2303010120111353,-1.5844052071664847,22.741125679016115,-29.770876235961914,21.08475082397461,215.30611122373728,,,,,,,,,,,,,0.7815970909946105,8.846351904027602,-2.746711905698712,14.27550064086914,-45.98775146484375,73.7280030822754,0.06399467832288973,-0.02164467607652492,-0.022492822264275042,0.7815970909946105,8.846351904027602,-2.746711905698712
14.0,-0.290640373603616,0.1624514208276673,-0.16639912451184033,1.0538926339975678,9.294617284642587,-2.882708230821213,-0.008814828812747318,-0.053616911346348474,0.002972427034275789,0.698018506021783,0.688865068525371,-0.04900373300850982,0.18745485154709013,1.4323450527568855,-1.2342365508032318,-1.5102240850429725,23.29087585449219,-29.524501190185546,20.46412582397461,214.70218317722788,none,false,false,false,,,,,,,,,0.7630485519029127,9.456494997043421,-3.0486610384270696,14.823375568389892,-45.74175140380859,73.10775283813477,-0.007368381710394341,-0.0578726712185159,0.001354779276595104,0.7630485519029127,9.456494997043421,-3.0486610384270696
15.0,-0.21624993321065808,-0.025198228218976187,0.04600029075335638,1.15834572531429,9.243747281093224,-2.948000653117311,-0.07103712818041297,-0.12485408327440814,0.04013774691536875,0.6952521841900021,0.6895625638026818,-0.042504892154943706,0.19623618587559344,1.4379035234451294,-1.2310254714068245,-1.4824569108439427,21.82162582397461,-28.886626091003418,20.866875801086426,215.71694483339107,,,,,,,,,,,,,0.9418868093075705,9.218065158993591,-2.9015016135047462,13.353375511169434,-45.10387657165527,73.51012847900391,-0.06958725263300065,-0.1291043296511663,0.038519059921070783,0.9418868093075705,9.218065158993591,-2.9015016135047462
16.0,-0.09798517784491034,-0.5377109955516782,0.035257574369079704,0.9267127711584072,9.266916520524733,-3.017301313947923,0.05366948533657135,0.09379926519285814,-0.05639656866425831,0.6887309332885364,0.6905820723807458,-0.027703287375002803,0.21791448495765725,1.441454277180209,-1.2205738100675072,-1.4260234714734672,23.47612590789795,-26.644876289367676,25.596751022338868,223.83954519891552,none,false,false,false,,,,,,,,,0.8284782602516289,8.728644512667515,-2.981538265648455,15.007500610351563,-42.86212646484375,78.24375320434571,0.055118627572322595,0.08954485272532146,-0.058016911897735265,0.8284782602516289,8.728644512667515,-2.981538265648455
17.0,-0.23051957939477527,-0.26116551886148315,0.23727316745356017,1.0919140092298096,9.340470491671095,-2.7270572115393246,-0.0258159646994923,-0.043131435695703664,-6.344062230079481E-4,0.7053453939802506,0.6812500205694461,-0.03625635280474728,0.19008264778291478,1.349942851300333,-1.2465365190131992,-1.570611413787393,26.395501136779785,-28.34700122833252,23.73262580871582,219.80476681123827,,,,,,,,,,,,,0.8611059226826125,9.0787769018435,-2.4893309953165987,17.9287508392334,-44.56312637329101,76.37737808227538,-0.024381064657712042,-0.04738440547175336,-0.0022517333295897094,0.8611059226826125,9.0787769018435,-2.4893309953165987
18.0,-0.1332335297276478,0.2538531852222168,0.15438338291674558,1.345473843045754,9.287394863544124,-2.7515870061251197,0.0029481609726288156,0.03854852841765273,0.0030088237687653186,0.7137985512761786,0.6727649622624463,-0.034206257773434175,0.18910923851008463,1.2783925037572879,-1.2473939373941705,-1.6406019430349368,30.907876510620117,-27.680626182556153,32.47462635040283,229.47840511160805,none,false,false,false,,,,,,,,,1.2119584777715182,9.540740050891838,-2.5966456638335593,22.4403759765625,-43.898251647949216,85.11975341796875,0.004387867769372522,0.034296813685739155,0.0013979175310654967,1.2119584777715182,9.540740050891838,-2.5966456638335593
19.0,0.25533161592660564,-0.2137225424579234,0.11707998020765355,1.3765151529919868,9.27344971077115,-2.775153666150336,0.01739170717186119,0.023723514759820877,0.03864294592069813,0.7130701217320886,0.6704184235912738,-0.027645247379815815,0.20155656381998913,1.2624415371677664,-1.2387894144152651,-1.6289849588186434,17.280750675201418,-20.363250694274903,31.49175094604492,236.30602866900546,,,,,,,,,,,,,1.6448000774664038,9.043135731827979,-2.663736882163029,8.811000390052795,-36.57937683105469,84.1342530822754,0.018250374710187315,0.02276312616188079,0.038337749815545975,1.6448000774664038,9.043135731827979,-2.663736882163029
20.0,-0.47056613347981824,-0.421416810464741,0.10581204362010749,1.48235019598857,9.215054700870326,-2.9203741951744155,0.03242977944147937,0.007779534582012132,-0.01750024406275913,0.7146668351522767,0.6642907751668797,-0.020750515070734638,0.2171157436205609,1.2204740047454834,-1.2247535179157067,-1.6381645568526617,13.414500617980957,-17.916750812530516,19.705875701904297,226.52987744275615,none,false,false,false,,,,,,,,,1.0114366807191089,8.793160769018796,-2.8140818217013144,4.948125202655792,-34.13437667846679,72.35025291442871,0.03387352913691133,0.0035224270678180106,-0.01913406884334251,1.0114366807191089,8.793160769018796,-2.8140818217013144
21.0,-0.30030541162134383,0.28718084568048224,0.04308734168914859,1.5221808459244521,9.15809788423426,-3.096936945821725,-0.011404331888782211,-0.004427227288447689,-0.05592438090352876,0.7110000159226212,0.6711830788967657,-0.03789414686388245,0.20549866571730258,1.2897218115189497,-1.2194852396553637,-1.610500056369632,22.018875923156738,-26.269126052856446,9.040125398635864,198.99738290712605,,,,,,,,,,,,,1.2216191724417549,9.444775483187508,-3.053353063031739,13.548375558853149,-42.48637634277344,61.68487731933594,-0.009969430118061529,-0.008674753096766106,-0.05754851323487883,1.2216191724417549,9.444775483187508,-3.053353063031739
22.0,-0.14745603835597487,-0.18453094234118367,-0.008045511919599358,1.7221108132069654,9.105374317358036,-3.1461498855364205,-0.028618873220265788,-0.07222928856864717,0.012122916957071307,0.7166108424120611,0.6642077984196124,-0.0332154849230653,0.20892944592650575,1.2320971725010637,-1.2181552766573311,-1.6562683936392908,23.658000984191894,-30.241126136779783,18.556875667572022,211.28145549489298,none,false,false,false,,,,,,,,,1.574258989995659,8.920340047024265,-3.153717475362343,15.189375686645509,-46.4583763885498,71.20275329589843,-0.0271899501710911,-0.07647022009626323,0.010503920648867885,1.574258989995659,8.920340047024265,-3.153717475362343
23.0,-0.19384606549625888,-0.5337542776091426,0.19066952663364217,1.2903265427140629,9.28154442357082,-2.817608524771298,0.007594852580451498,0.04040477889151696,0.03137021953714829,0.7117162568896425,0.6733106345522637,-0.04868866625588899,0.19158581381334977,1.3096988692003138,-1.2239076296488445,-1.6261847042569928,24.011626014709474,-27.508876190185546,22.94700092315674,219.79094377126304,,,,,,,,,,,,,1.0962235838832224,8.747310694526224,-2.6263942461387786,15.542625703811645,-43.726876449584964,75.59062759399414,0.009037254063193412,0.036154412290117906,0.029751225552685997,1.0962235838832224,8.747310694526224,-2.6263942461387786
24.0,-0.2840161877958214,0.2417154047893835,0.24113961769377484,1.3619057477689256,9.237505940830006,-2.8673040960349288,0.01638836586515945,0.0012960402562402853,0.009187994709256853,0.7116461331937828,0.6751038309405831,-0.027862186306247524,0.19111893881185382,1.289884905020396,-1.254912094742644,-1.6172832145410425,27.737626152038573,-27.318751068115233,23.577375984191896,220.69810585195034,none,false,false,false,,,,,,,,,1.0776103373397798,9.478750434576297,-2.6256780589328095,19.27012580871582,-43.53525146484375,76.21875274658203,0.01783007530882807,-0.002951484118210207,0.007567945259189842,1.0776103373397798,9.478750434576297,-2.6256780589328095
25.0,-0.02302549943327904,-0.04027321453656668,0.14362531280494295,1.4788733077049256,9.278151369094848,-2.719022479057312,-0.0018427695932925917,0.0833061265476121,-0.02591875037087091,0.714943408370018,0.6717273432016373,-0.03117616972886026,0.18783205077052118,1.2660910201072693,-1.2524696600437164,-1.6504034304618835,27.652501029968263,-31.60950141906738,21.03000087738037,213.5327531878169,,,,,,,,,,,,,1.4548693730837048,9.211743954384682,-2.556035766507139,19.1857506942749,-47.82637702941894,73.67250335693359,-0.0019372518331107528,0.07543712618327376,-0.030075743245790796,1.4554980660229921,9.237391891479492,-2.574856624007225
26.0,-0.11114733150726792,-0.24643505344370215,0.13914414043399956,1.2392557286980128,9.161423069415706,-3.158168941441149,0.02878378746145875,0.008712870299373524,0.05787252457720218,0.710510778545153,0.6707925637169639,-0.042877980019196425,0.20709749584150786,1.2960917713618514,-1.2106990991252484,-1.6087867883172366,25.87500118255615,-31.582501373291016,21.229500770568848,213.86057861496755,none,false,false,false,,,,,,,,,1.1336515305527286,8.898704809301039,-3.002161909260002,17.40525074005127,-47.797876815795895,73.87237854003907,0.029357625679112972,0.0022536254627630115,0.055354749565012754,1.1277965949756084,8.91452415862886,-3.0185600469017975
27.0,-0.29743777232078633,-0.11949310385354675,0.06365480079168066,1.199487562816922,9.192527610476654,-3.1261797753891143,0.021083333406268674,0.008283701127248943,-0.02024215752916301,0.7054535953125151,0.6761599731917428,-0.03413958438109643,0.20862041428537653,1.3231470879941885,-1.2225371799846687,-1.5671551794108778,24.76875099182129,-31.81987636566162,20.56050079345703,212.83574263723366,,,,,,,,,,,,,0.9018148914864748,9.072569242798457,-3.0620362888468375,16.300500717163086,-48.03750160217285,73.20525329589844,0.02253112614647869,0.00403468165656223,-0.021850368391503307,0.9018148914864748,9.072569242798457,-3.0620362888468375
28.0,-0.3694106081806525,0.15244879537061148,-0.04542586325631276,1.2717895612997168,9.294355869293213,-2.7673519744592556,0.0013573010645733022,-0.04832103945739051,-0.04864505014502176,0.7074771535162833,0.6788916821573295,-0.03380263724601736,0.19159510790133008,1.3354483702603508,-1.2463279074313593,-1.5794150046273774,24.637500953674316,-30.39037616729736,18.265125789642333,210.97798011643084,none,false,false,false,,,,,,,,,0.9020926785819671,9.446346011816287,-2.8123016021415297,16.170375690460205,-46.60687644958496,70.90837844848633,0.0027922027753573835,-0.05257128619376828,-0.05024467812076506,0.9020926785819671,9.446346011816287,-2.8123016021415297
29.0,0.004647275045661643,-0.41299140254164685,-0.13856209011398035,1.5170249360622745,9.323309275183346,-2.542062021718167,0.009161274373421775,-0.052735293279493264,0.004498407386206821,0.7189679128108638,0.66972814692129,-0.023893574046980736,0.18281091041494124,1.2244399243062085,-1.2683632314795314,-1.689238960200017,22.422000732421875,-30.638625984191894,18.626250743865967,211.23633934630644,,,,,,,,,,,,,1.5213000722008176,8.909807323229195,-2.6801006227436632,13.954500541687011,-46.85662651062012,71.2736277770996,0.010607720676846072,-0.05698700883772736,0.0028753675949558907,1.5213000722008176,8.909807323229195,-2.6801006227436632
30.0,-0.24752784156989233,-0.4212803970018,0.25794279299603373,1.4781822234976525,9.352632475834266,-2.4548020584910524,-0.026973143948408048,-0.006974381371631776,0.01628081776238609,0.7195866750735863,0.6695255391737994,-0.031857549011999484,0.1784555599385617,1.2339451687008727,-1.262521040205862,-1.6972493576068504,23.11612579345703,-31.174126281738282,19.714875640869142,212.22179531878155,none,false,false,false,,,,,,,,,1.230382410663308,8.930866568696265,-2.196339804167841,14.649000625610352,-47.39212661743164,72.35887817382813,-0.025550494994046075,-0.01122735270603311,0.014664850382152761,1.230382410663308,8.930866568696265,-2.196339804167841
31.0,-0.34213364410912617,0.09006164531223476,0.08270462134096306,1.4960380864143372,9.316111040115356,-2.568579293489456,-0.01111980308179218,-0.004346905340726423,-5.486370110423258E-4,0.7208797574043274,0.6662579399347305,-0.03148370014503598,0.18635476857423783,1.2150201904773712,-1.2510053718090057,-1.7041081523895263,23.731501045227052,-31.297876243591308,22.422375793457032,215.5823483611943,,,,,,,,,,,,,1.1536185531131924,9.405689001083374,-2.4853636091947555,15.26175064086914,-47.51325172424316,75.06825317382813,-0.009682177787296253,-0.008595791917368032,-0.002161881840317556,1.1536185531131924,9.405689001083374,-2.4853636091947555
32.0,0.04621765961614894,0.023833036678386668,0.02593425491496044,1.456892419095133,9.22166357788385,-2.9138505458831787,-0.0020720297424583743,0.01589009847657958,0.007430445329092517,0.7168225634331796,0.6656263120034162,-0.027592794129661487,0.20493628376839207,1.228211617937275,-1.2316714022673814,-1.6581734383807463,25.147876205444337,-31.928251533508302,22.059750862121582,214.51042241030126,none,false,false,false,,,,,,,,,1.5027868309441734,9.245021015990014,-2.887460429294437,16.680375747680664,-48.144752197265625,74.70187805175782,-6.412126787818304E-4,0.011639850499975209,0.005809035442658875,1.5027868309441734,9.245021015990014,-2.887460429294437
33.0,-0.16984569640959254,-0.11595016448657111,0.2502706318835516,1.6497958001523916,9.158238250430268,-3.0129881943806565,0.0011283082969705848,0.025529167601181305,0.021849019389015203,0.71954612566693,0.6595034174399801,-0.02282771295268494,0.21529330564017343,1.183940333895164,-1.221252706971499,-1.680266246937289,22.591125869750975,-29.177251052856445,23.468625946044924,218.79856459004688,,,,,,,,,,,,,1.479617898269455,9.041749430174875,-2.7622204264718118,14.122125606536866,-45.394126663208006,76.11075241088867,0.002559926981727282,0.02127745109336341,0.020234068618247322,1.479617898269455,9.041749430174875,-2.7622204264718118
34.0,-0.3882289756746853,-0.3324913480410389,0.2958081785279016,1.628859719809364,9.186803789699779,-2.8984756738531825,0.10591992527006729,0.06325544569512258,-0.05631101442187434,0.7252266354420606,0.6541359284344841,-0.021679803847755287,0.21189454738415925,1.1333931696181203,-1.2225692389058131,-1.7340391289954091,26.228251152038574,-29.66812614440918,23.54062599182129,218.39958732945755,none,false,false,false,,,,,,,,,1.240314758638395,8.853795986549526,-2.6021559922134174,17.760750732421876,-45.88500160217285,76.18687789916993,0.10734665805547691,0.059009281291377426,-0.0579228955367119,1.240314758638395,8.853795986549526,-2.6021559922134174
35.0,-0.1279844557774244,0.16282407493021633,-0.05965924609249624,1.7731640433320905,9.233723602672615,-2.688645076043535,-0.015447181453197902,-0.03155220449244713,-0.011467769427005859,0.732025690007918,0.6493693336401836,-0.014626772253598907,0.20400485396385193,1.0739313871553628,-1.2382951337512176,-1.7950940096732413,26.749501152038576,-33.492376518249515,19.468500576019288,210.13486059541228,,,,,,,,,,,,,1.6447723547162691,9.396071722011754,-2.7478144859323406,18.283125762939452,-49.708877334594725,72.11325302124024,-0.013999387580791818,-0.03579852703100472,-0.013089461192744328,1.6447723547162691,9.396071722011754,-2.7478144859323406
36.0,-0.003736584392540595,-0.3073466921718243,-0.163711768579578,1.6069608441754883,9.25398001016355,-2.688501432830212,-0.032192697458079844,-0.04470655849516982,0.022627598223377867,0.721760973626492,0.6630263118182912,-0.02583322558990296,0.19490452972697278,1.187372420348373,-1.2454835772514343,-1.711182150186277,25.727626113891603,-34.31962638854981,13.929750537872314,202.08838007079942,none,false,false,false,,,,,,,,,1.602797142540415,8.946141588921641,-2.8517118902767407,17.258625774383546,-50.53800231933594,66.57600311279298,-0.030757795940937086,-0.04895816753516988,0.02099938159070835,1.602797142540415,8.946141588921641,-2.8517118902767407
37.0,-0.19331148243883836,-0.4175340729537374,0.18824155021938357,1.4526789707712608,9.326595570781443,-2.5922427838391595,0.011740074319509314,0.008152941698391064,0.007925121414968195,0.7243569339856063,0.6644215088079471,-0.036638484732939465,0.17923527719950913,1.2000757042724308,-1.2521457471469841,-1.7368295086492407,19.267125663757323,-30.149251327514648,11.760000400543213,201.3308611067185,,,,,,,,,,,,,1.259103023290339,8.908585052679081,-2.4034976408918305,10.799625415802002,-46.36612678527832,64.40362731933594,0.013186519550086529,0.003894484939747581,0.0063128674348049306,1.259103023290339,8.908585052679081,-2.4034976408918305
38.0,-0.4378203127653071,0.05983338139877461,0.2155969488794113,1.6130322406787683,9.310140080971292,-2.5309383550492845,-0.022094874000176786,-0.02271912475582212,0.02724012510385364,0.7284631746830327,0.6611684277506158,-0.031253049555833974,0.17503484124594396,1.1524388235394318,-1.2618570115306589,-1.7828850321250387,21.698250885009767,-28.37437629699707,14.421000595092773,206.87847021410602,none,false,false,false,,,,,,,,,1.1748683786038125,9.36952025347417,-2.3149040779559917,13.231875534057616,-44.59050132751465,67.06500289916993,-0.020653875018469988,-0.02696512528695166,0.02562174929305911,1.1748683786038125,9.36952025347417,-2.3149040779559917
39.0,-0.2425050713194936,0.18760815912894174,0.12242877744503465,1.4822905478524226,9.326400906431909,-2.5459942525508357,0.01900465707477255,-0.02838296565574174,0.019072058879971213,0.7217471511924968,0.6671079210206574,-0.024009009868856155,0.18160426470578886,1.200956704569798,-1.2678022711884742,-1.714615824175816,23.53762584686279,-28.92900100708008,17.556750831604003,211.2462250484206,,,,,,,,,,,,,1.239479480274752,9.513534302804985,-2.423100105783555,15.07162561416626,-45.14587661743164,70.20075302124023,0.020448407171951496,-0.0326238967131312,0.0174463238092322,1.239479480274752,9.513534302804985,-2.423100105783555
40.0,0.18759165838761901,-0.21879053668298823,0.10595561119515708,1.4392157427155146,9.303464795103167,-2.639414170000813,0.01543639750019008,0.09022022099873307,0.03210085750940968,0.7186760011285839,0.6614315155709144,0.004520613859213963,0.2115346925093396,1.1478366108223943,-1.2647777300069827,-1.6831016245454844,23.533125801086427,-29.633251304626466,21.174000701904298,215.46229784855146,none,false,false,false,,,,,,,,,1.626346118121159,9.084147434423466,-2.532956551280942,15.066750621795654,-45.84937622070313,73.81837738037109,0.016882843091426528,0.08596715514146376,0.030475122904331953,1.626346118121159,9.084147434423466,-2.532956551280942
41.0,-0.39950628646229414,-0.3516341621677081,0.1433802530644279,1.3510150161443972,9.257212582756491,-2.8295426695954564,0.02136559389291866,-0.01967747511323726,-0.017523763300205518,0.7182649461662068,0.6631293022165111,-0.011499215645587766,0.20932075600413716,1.1852503524107092,-1.247046096652162,-1.6718232246006237,24.635250930786132,-29.33887622833252,21.395250511169433,216.0474043702466,,,,,,,,,,,,,0.9512838654074014,8.905068084305407,-2.6856457091429653,16.167750663757325,-45.55725158691406,74.0403776550293,0.0228059409177023,-0.02392227777123156,-0.019145173306512362,0.9512838654074014,8.905068084305407,-2.6856457091429653
42.0,-0.30591134896667876,0.3122797950659648,-0.02058601756534069,1.5110399050287682,9.265380236181882,-2.7388363002550484,-0.014910661514994561,-0.05848333505256211,-0.042278552368538926,0.7160020860114901,0.6643281065591491,5.712773562132354E-4,0.21183436474587658,1.1810212312358441,-1.2611002237489908,-1.655128251207937,25.69050109863281,-29.355001106262208,21.239250793457032,215.7871781031294,none,false,false,false,,,,,,,,,1.2048431328396396,9.577181140975197,-2.7588847790024067,17.223000793457032,-45.571501388549805,73.8832536315918,-0.013468259320064796,-0.06273774528309849,-0.04388676452742634,1.2048431328396396,9.577181140975197,-2.7588847790024067
43.0,-0.04372073278999796,-0.36520899540982116,-0.06848880299823541,1.3823762389959073,9.274777926650701,-2.7537020398121252,-0.016743688240167823,-0.04911744926069485,0.0029501237602222083,0.7102106120072159,0.6684659503254236,-0.0038452058413039436,0.21850920658485562,1.231567710053687,-1.2479222919426711,-1.6009964124829161,26.15175109863281,-29.587501106262206,21.391875801086425,215.79402075779817,,,,,,,,,,,,,1.338308883283068,8.909088644326902,-2.8216515966490205,17.684250793457032,-45.80437660217285,74.03512832641601,-0.01530061896410909,-0.053370420701137865,0.001338242931236135,1.338308883283068,8.909088644326902,-2.8216515966490205
44.0,-0.17156265582889318,-0.4762842942774296,0.13315856106579305,1.4296664226055145,9.331866769790649,-2.555201597213745,0.006335890810420313,0.044227352550271715,-0.01788589080777204,0.7224785017967225,0.6582083743810654,-0.011092140019900398,0.20979191079735757,1.1471128058433533,-1.2433127284049987,-1.7085331737995149,25.233751068115236,-29.71500114440918,18.847875785827636,212.29622958809261,none,false,false,false,,,,,,,,,1.2577620585262776,8.855110898017884,-2.4215446088463066,16.765875663757324,-45.93225166320801,71.49037826538085,0.0077707927010141975,0.03997438091618737,-0.01950185617782397,1.2577620585262776,8.855110898017884,-2.4215446088463066
45.0,-0.3578088475464314,0.08583018395538423,0.1253661491597692,1.6282741661165274,9.266611258188883,-2.6650076356588626,-0.03485693073471879,0.01911794578674996,-0.0029841569243091166,0.7287385183222154,0.6556200648055357,-0.029231137007146198,0.19267309924551085,1.1382026859358245,-1.2380284550143223,-1.768238781713972,24.11662586212158,-28.341376152038574,16.299000720977784,209.77000105267965,,,,,,,,,,,,,1.2701941727313633,9.35193569987428,-2.5391280645248937,15.648750629425049,-44.558626327514645,68.94375305175781,-0.03341930683720672,0.014860891174561906,-0.004601485787494348,1.2701941727313633,9.35193569987428,-2.5391280645248937
46.0,0.01985361095112149,0.02567048471808286,0.02231144398856576,1.486978797629328,9.272593082767902,-2.719387615081107,0.040129778294951894,0.0033026955629169357,0.026201837276126825,0.7230345500577794,0.6594884224457316,-0.013332059292242595,0.20369170370078324,1.151468579131778,-1.2490909312031058,-1.7163946121045859,24.946501007080077,-29.793751182556154,18.02512580871582,211.1499120129482,none,false,false,false,,,,,,,,,1.5064500709350157,9.297701453218366,-2.6966006215846186,16.4805006980896,-46.0102515411377,70.66987823486328,0.04156544101059291,-9.503682582255672E-4,0.024584191020432057,1.5064500709350157,9.297701453218366,-2.6966006215846186
47.0,-0.030650546493501785,-0.26686569342535793,0.16833222595353922,1.5499573829127293,9.302392856747497,-2.5722739275764015,0.06003576674323419,0.011916213281600191,0.0615782179629965,0.726321233253853,0.656248550789029,-0.011033686317900634,0.202936922510465,1.1184194403536178,-1.2506175683993919,-1.7472715798546286,23.544375915527343,-31.894876251220705,18.321000785827636,209.8477731922117,,,,,,,,,,,,,1.5189118385497553,9.03496657633314,-2.4034515870552435,15.07425064086914,-48.11175163269043,70.96650329589843,0.06146794501784267,0.007663241642905344,0.05996633626262445,1.5189118385497553,9.03496657633314,-2.4034515870552435
48.0,-0.5553106837583208,-0.2767936640077888,0.03935524502234294,1.5479879178623162,9.265127484161075,-2.670766315837898,-0.013260661985031237,-0.008216299207917615,-0.05042475389371462,0.7140471190214157,0.6574813133478165,0.023742010190617294,0.23738326013088226,1.128068722486496,-1.2554238033294678,-1.6372141337394714,23.281500854492187,-30.43725116729736,21.386250762939454,215.04116676366414,none,false,false,false,,,,,,,,,0.992392620482104,8.987793960193596,-2.630881310578915,14.813625583648681,-46.65262680053711,74.02912796020507,-0.0069525991520374125,-0.008384777790876013,-0.05877648522192151,0.992392620482104,8.987793960193596,-2.630881310578915
49.0,-0.1736898353807263,0.22603214422569556,-0.120226011310211,1.595699429512024,9.221288783877503,-2.8408568700154624,6.194296892326657E-4,-0.009649505820309762,-0.018514850767015822,0.7227324662255306,0.650523211441788,4.4457840062130024E-4,0.2320620655721309,1.101357585074855,-1.2252929292473138,-1.7047163224687762,22.72537582397461,-29.812501068115235,21.265875778198243,215.4694375994908,,,,,,,,,,,,,1.4217500600269903,9.446791630165249,-2.9605927858866896,14.25375057220459,-46.02900146484375,73.91100296020508,0.0020516097342761436,-0.0139011134863785,-0.02013490023552486,1.4217500600269903,9.446791630165249,-2.9605927858866896
50.0,-0.08219461543252692,-0.1924959731847048,-0.13065400817897171,1.8570332849025726,9.204425287246703,-2.7326560187339783,-0.017427104133374914,-0.04068230151539982,-0.02202042005956173,0.7284189385175704,0.6512649136781693,-0.009368810028754525,0.2104462979733944,1.09159305870533,-1.238837503194809,-1.7604523921012878,23.45175102233887,-28.131001167297363,17.845125713348388,212.3343613644448,none,false,false,false,,,,,,,,,1.7690555430432358,9.031069750833039,-2.87075806077164,14.98387571334839,-44.34787658691406,70.49062759399413,-0.0159840346913379,-0.044939356782279984,-0.023644553981536982,1.7744955975562333,9.011470942497253,-2.8627756398916246
51.0,-0.19061786405669123,-0.5344513554934084,0.23606194651174342,1.6785876902879453,9.33050287471098,-2.3863970239957175,-0.010854332343592206,0.059587870812098875,0.0017534647192252745,0.732625204558466,0.6497827563800064,-0.006103548980272357,0.20114943180598466,1.0511392080316357,-1.2531856602313471,-1.8100884778826845,23.205750885009767,-25.583626098632813,18.951375846862792,216.49490165610717,,,,,,,,,,,,,1.4876397753353505,8.795515135222791,-2.1498633439050003,14.736750583648682,-41.80087646484375,71.59650314331054,-0.009427598474713245,0.055338983442449925,1.4566822844271613E-4,1.4876397753353505,8.795515135222791,-2.1498633439050003
52.0,-0.35083031851687646,0.03478974740177688,0.09042629804738825,1.5903323652720687,9.33124863275207,-2.461950600737392,-0.007206617019084447,-0.009645221060981937,0.032142647788585985,0.7303519402400102,0.6555839830105847,-0.022892693168308477,0.1877350600639192,1.1124731910110701,-1.2518331591445622,-1.7922383546829224,27.61537609100342,-25.663876152038576,20.311500663757325,218.2361119762105,none,false,false,false,,,,,,,,,1.2392332275757696,9.365505860583617,-2.3710352536475305,19.149750633239748,-41.88112663269043,72.95550323486329,-0.0057696085971067936,-0.013884803252842496,0.030526347622713623,1.2392332275757696,9.365505860583617,-2.3710352536475305
53.0,-0.1117599817796373,0.15092663395711603,0.04214991383966716,1.5351778981732387,9.214988549550375,-2.8649040425524994,0.012432177740121536,-0.015404085172248064,0.012558787383397323,0.724341715667762,0.6573745427178401,-0.025593617501869507,0.2052157039151472,1.1611613853304994,-1.2285436006153332,-1.7218399725708307,27.56925106048584,-28.80862606048584,21.375000762939454,216.50013705330767,,,,,,,,,,,,,1.4230780127440013,9.365434291316014,-2.8222486704003575,19.100625762939455,-45.026626358032225,74.01937789916992,0.01388205435717165,-0.019652971223291783,0.010944184141768383,1.4230780127440013,9.365434291316014,-2.8222486704003575
54.0,0.09408666470115727,-0.37375821027499023,0.1289088622099803,1.4088816064419132,9.394568887087377,-2.27297575639026,0.11140061229668266,0.004181617884622777,0.07493075953942596,0.7295472326845226,0.6547110299072644,0.014399980199477165,0.19488203805862087,1.0254362957312328,-1.2925803838389935,-1.815990399606157,24.921751022338867,-29.70525115966797,15.35662561416626,207.2156705646541,none,false,false,false,,,,,,,,,1.5026436358837798,9.020335093583212,-2.1436441615592727,16.45237564086914,-45.921751480102536,67.99837821960449,0.11282818623380188,-6.875099942964666E-5,0.07331580875952746,1.5026436358837798,9.020335093583212,-2.1436441615592727
55.0,-0.4116861461022613,-0.22837640310171992,0.33324752649287787,1.323172662188025,9.389861864202162,-2.3853933448885,-0.015327205954521311,0.03372524431267498,-0.02046458301243975,0.7222879143322215,0.6614235715538848,0.017880186141815548,0.20034916596669777,1.0966314340338987,-1.297284719990749,-1.7320760698879467,23.895001029968263,-27.513751106262205,15.26175064086914,208.98476968557455,,,,,,,,,,,,,0.9112235711631822,9.160997498269175,-2.0517295130172415,15.428250617980957,-43.73062644958496,67.90312881469727,-0.013880759797186828,0.029472181765253052,-0.022078187382944366,0.9112235711631822,9.160997498269175,-2.0517295130172415
56.0,-0.3007181981058024,0.1229324326211331,0.020101005795831774,1.42966234274939,9.311619029325598,-2.5755869816331303,-0.03606856449756144,-0.03158279704298861,-0.03073737680414083,0.7195778553392372,0.6591538459646935,0.012887823543589512,0.21603155939602384,1.1249702093647975,-1.2689980093170614,-1.6874422547863979,23.665500984191894,-25.66350112915039,16.515375690460203,212.61100031163397,none,false,false,false,,,,,,,,,1.1287074054719186,9.434129855212044,-2.5550383563135184,15.198375701904297,-41.879251632690426,69.15712799072266,-0.03463910835896536,-0.03583440554355926,-0.03234789592426012,1.1287074054719186,9.434129855212044,-2.5550383563135184
57.0,-0.2233940688939765,0.16016257897019387,-0.09591591013129801,1.5600543868541719,9.232099256515504,-2.7784557557106018,-0.045453184991892354,6.335893390225429E-5,-0.05102732717333471,0.7180344015359879,0.6603705722093582,-0.009197900021390523,0.21792738124728203,1.177044302225113,-1.2368513309955598,-1.6638857686519624,24.540001029968263,-25.018876190185548,15.043125591278077,210.95262918632622,,,,,,,,,,,,,1.3159262982824136,9.376420247672808,-2.866770441874419,16.07137561798096,-41.23650131225586,67.68600311279297,-0.04774517260288986,-0.00473490060021234,-0.042846906104927314,1.3159262982824136,9.376420247672808,-2.866770441874419
58.0,-0.1292544170921924,-0.23147354976904086,-0.0657051976076236,1.3759411900651222,9.245452114180022,-2.8786410958159205,0.013485891799820533,-0.06944566831398423,0.03998118731202466,0.7173706883308935,0.6614924926383823,-0.008265656835111953,0.21537767628244325,1.1786448791915296,-1.241749459621953,-1.664638271518782,23.531250877380373,-25.633875999450684,14.122875690460205,208.58363499998129,none,false,false,false,,,,,,,,,1.2463471169638283,9.013444573271508,-2.9439016089719883,15.06187562942505,-41.85112686157227,66.76650291442871,0.014933043399290873,-0.07369999974818513,0.03837066706233096,1.2463471169638283,9.013444573271508,-2.9439016089719883
59.0,-0.06904000895097852,-0.6699450436234474,0.08465262394398451,1.2001027405261993,9.388789749145507,-2.468123561143875,0.011652451191170542,0.010378552701178134,4.6642190849810255E-4,0.7193649291992188,0.6598436546325683,-0.0058760200371034445,0.21594612061977386,1.158257510662079,-1.2439014112949371,-1.6809789443016052,22.360875778198242,-27.625876121520996,16.531875743865967,210.82576628939765,,,,,,,,,,,,,1.1307520321985283,8.707252374970087,-2.3687154441186697,13.891500549316406,-43.84200149536133,69.17625305175781,0.01308541671445995,0.006121446218743336,-0.0011512256528743926,1.1307520321985283,8.707252374970087,-2.3687154441186697
60.0,-0.2690499314271352,-0.02672552845586895,0.19980985338927484,1.1921089063672459,9.358862530951406,-2.601310458837771,-0.01219938270341937,0.017079951389148685,0.02434839087418548,0.7150851692639145,0.6673009570907144,-0.007659294166574802,0.20657262761218875,1.2069949215533686,-1.2577943474638695,-1.6487336918419482,22.839750862121583,-26.764501152038573,17.7142506980896,213.5137241292584,none,false,false,false,,,,,,,,,0.922838279100902,9.331679835039026,-2.4009515800896812,14.371500587463379,-42.98100158691406,70.35825271606446,-0.010763118914927882,0.012826980082410396,0.022737870624491778,0.922838279100902,9.331679835039026,-2.4009515800896812
61.0,-0.08795845458781955,0.18202481206764679,0.05126269932578106,1.342537270324065,9.293534486600668,-2.728544525580831,-0.02769546579642623,0.015151960935041892,0.005731861883153518,0.7208966807563706,0.6627106424605492,-0.016919673091990155,0.19926504982580054,1.1788382848890702,-1.2515705776686716,-1.7005974632678647,24.675751037597657,-24.23025115966797,19.15312572479248,218.22647550657635,,,,,,,,,,,,,1.2542762940030288,9.47505786159251,-2.676742711279652,16.207500591278077,-40.44712654113769,71.79975280761718,-0.026255759611433626,0.01089485142124342,0.004112868250219845,1.2542762940030288,9.47505786159251,-2.676742711279652
62.0,0.09787432484182657,-0.06968300497415018,0.021680694310834595,1.3668803853147171,9.220933942233815,-2.94649712712157,0.051814355163622906,0.04460581706486421,0.040030198231671414,0.722286276957568,0.6581257330436333,-0.020297539251509542,0.209182508289814,1.1639796810991623,-1.231532628629722,-1.7055290762115927,26.22637596130371,-26.234251136779786,18.566625690460206,215.21726859581864,none,false,false,false,,,,,,,,,1.4643530073009579,9.150746032303454,-2.9243324884012636,17.7585005569458,-42.45037658691406,71.2106283569336,0.053239727402013715,0.040350124226090044,0.03841150855405791,1.4643530073009579,9.150746032303454,-2.9243324884012636
63.0,-0.14239930996671318,-0.5777020716294646,0.2550585200311616,1.3190255236625672,9.258381805419923,-2.8427384650707244,0.03178155837156395,0.060414231940181834,-0.0352245035747269,0.72525783598423,0.6538660264015198,-0.01282927003921941,0.21331282943487168,1.1200384271144868,-1.2327787327766417,-1.7327491080760955,24.394875907897948,-29.126251106262206,20.076750831604002,214.53932960482496,,,,,,,,,,,,,1.1763225675560534,8.680210871696472,-2.587170122861862,15.92850061416626,-45.34125160217285,72.72037857055665,0.033231436002925774,0.05615990100852629,-0.03683774730670127,1.1763225675560534,8.680210871696472,-2.587170122861862
64.0,-0.3514368245743361,0.03973925687080505,0.023228757476032365,1.571715956809474,9.205710364323036,-2.8960046160454844,0.022238242513693794,0.0012021045763008665,-0.05567524808523531,0.729495139098635,0.6509334883269142,-0.023774970450675954,0.20690050166027218,1.1139686516686982,-1.2230193521462234,-1.7637765734803443,25.368750801086424,-29.988001174926758,18.8711256980896,212.1609588954945,none,false,false,false,,,,,,,,,1.2199838789746018,9.24490335408379,-2.8722824870663533,16.901250610351564,-46.204126586914064,71.51362823486328,0.02368131121804956,-0.0030467819404041414,-0.05728168388607331,1.2199838789746018,9.24490335408379,-2.8722824870663533
65.0,-0.2856824470610164,0.15821683017702975,-0.14860959594497586,1.5357573693341549,9.284011991897431,-2.663653004287493,-0.011651103471533633,-0.12479742564827058,0.007003063778849501,0.725856857134564,0.6580140537554675,-0.020238009895518477,0.19645776311949928,1.144477624704342,-1.2474101073671096,-1.743688931559572,24.918000717163086,-28.594501190185547,16.243500728607177,209.56950783510484,,,,,,,,,,,,,1.249831239711309,9.441787578091763,-2.8117545642475092,16.449750633239745,-44.81250137329101,68.88487762451172,-0.010212745435316773,-0.12904375032795704,0.00538406791804614,1.249831239711309,9.441787578091763,-2.8117545642475092
66.0,-0.0010405985328058402,-0.4975519837702022,-0.11859059330377289,1.5361684338719237,9.251515622232475,-2.74559402699564,-0.03832710371122207,9.543311938938528E-4,-0.01761633675029077,0.7287716602577883,0.6538788898318422,-0.022982754740024022,0.20042342327389062,1.1222417938943003,-1.2351766719537622,-1.7639965882488327,24.752626037597658,-25.677376174926756,15.437625579833984,210.91893838200278,none,false,false,false,,,,,,,,,1.5347397687260573,8.753468064700856,-2.8637133686273706,16.284000720977783,-41.89312644958496,68.0805029296875,-0.03689220311157036,-0.003294554156352683,-0.01924319258697405,1.5347397687260573,8.753468064700856,-2.8637133686273706
67.0,-0.25889416944493754,-0.24310882835842595,0.2414804507037717,1.4646154146383303,9.298885572074663,-2.6885077032712426,0.02846519587397137,-0.020034559125847676,0.03625551475138933,0.7278196475293377,0.653938902486669,-0.02797569309840772,0.20222798078367027,1.1362718379143442,-1.2261132910700128,-1.7543549596673191,24.98212589263916,-28.31287612915039,16.3342506980896,209.88923832294742,,,,,,,,,,,,,1.2053465872707934,9.055258340174609,-2.446540219653951,16.516500644683838,-44.53162643432617,68.97712829589844,0.02990894560136047,-0.024287622111539047,0.03464595542070182,1.2053465872707934,9.055258340174609,-2.446540219653951
68.0,-0.13328556427001662,0.18977720302063972,0.1629832050792745,1.2853745116907007,9.30787057502597,-2.710769985236374,-0.03717809469706499,-0.019433787899405353,0.05228811902648742,0.7184508553906983,0.661885389510323,-0.0036715000580229305,0.2118193927933188,1.163358113344978,-1.252717531194874,-1.6788435718592476,24.687376036643983,-31.43325126647949,18.197625675201415,210.028547628513,none,false,false,false,,,,,,,,,1.151839760296485,9.497140155119055,-2.5472604189725483,16.218750705718993,-47.65125160217285,70.84200302124023,-0.03573230211392488,-0.02369084177852267,0.050670790900983434,1.151839760296485,9.497140155119055,-2.5472604189725483
69.0,0.1755144639530837,-0.06432372125068514,0.014849205750345004,1.1484986537753945,9.331485191194139,-2.668638550408996,0.06256249900359441,0.023353431017740685,0.04447585840106887,0.7125426820009062,0.666480549491278,0.014203207935022171,0.21715616840537233,1.1847054037717308,-1.274225100432292,-1.62436314266507,25.81200126647949,-33.03975162506104,18.889125747680666,209.6806351832711,,,,,,,,,,,,,1.3236921414327207,9.266676666712996,-2.6532313016676667,17.34412588119507,-49.257002182006836,71.53462799072265,0.06400490067807921,0.01910036620592662,0.04285146989037886,1.3236921414327207,9.266676666712996,-2.6532313016676667
70.0,-0.10854109108228893,-0.4646252875818926,0.15932425166315892,1.361683045532189,9.351495303359686,-2.475193802048178,0.044019059029103504,0.07566447967276124,-0.022196040073833842,0.7212664876498428,0.6586305615948695,0.012246313680068352,0.2115143040815989,1.105997196599549,-1.2730552402197146,-1.7139669691815096,24.400125885009764,-34.15575157165527,17.364750614166258,206.9075087965275,none,false,false,false,,,,,,,,,1.2529029922705948,8.886398960562314,-2.31542952832145,15.931875629425049,-50.372627105712894,70.00987823486328,0.04545532172029414,0.07141423271968961,-0.023814727450803954,1.2529029922705948,8.886398960562314,-2.31542952832145
71.0,-0.5626440153037217,-0.20642202252558634,0.19403434117489002,1.5268517884553647,9.304529143314735,-2.5961921226744558,-0.0042153198463732704,0.0036599263640157147,-0.027896323738911866,0.7244825817570828,0.6584754409176288,0.001130118807760473,0.20278950478180802,1.1104188561439514,-1.2688055829246445,-1.7383370741759196,23.051250991821288,-33.883501510620114,17.26950065612793,206.95540040421278,,,,,,,,,,,,,0.9639000404699176,9.097635694578582,-2.401723633173342,14.581125583648681,-50.10000213623047,69.91312774658203,-0.0035545803597289145,5.064341470156565E-4,-0.025896285360881892,0.9639000404699176,9.097635694578582,-2.401723633173342
72.0,-0.3050591975616494,0.2083340246267248,-0.016154256026896806,1.54797499899817,9.234202885391689,-2.824223465258532,-6.740188737418138E-5,0.007894116919487715,-0.039137622793479,0.72786544573189,0.6537676648338242,-0.017065524750638127,0.2047506334758041,1.116562858666524,-1.2375160160631236,-1.7549263994292457,22.481625862121582,-31.57350128173828,15.354375667572022,205.9170658902534,none,false,false,false,,,,,,,,,1.2426282783767375,9.442075691600838,-2.8398818261552563,14.014875507354736,-47.79075180053711,67.99987747192382,0.0013817405903383212,0.003642401493647519,-0.04075931435834397,1.2426282783767375,9.442075691600838,-2.8398818261552563
73.0,-0.23426830265031873,0.03590437225705268,0.01470900471687463,1.6229691937857984,9.273979738646863,-2.653807228686763,-0.028525124382375196,-0.09593824335917978,-0.02369492497793076,0.7299558309947743,0.6546311588848338,-0.012799098022001357,0.19454635460587108,1.0944654152673834,-1.2568047958261825,-1.7860162059466045,22.44712577819824,-31.83900115966797,14.520750617980957,204.42755937726503,,,,,,,,,,,,,1.3884250682723873,9.309423979590921,-2.6386030608532476,13.977375545501708,-48.05625183105469,67.16512794494629,-0.027098390891557873,-0.10019121323205014,-0.025306808467179833,1.3884250682723873,9.309423979590921,-2.6386030608532476
74.0,0.03208724315748504,-0.4484357931973911,-0.16670396039928775,1.6377701287222381,9.312906727932468,-2.506381845710301,0.0071958333765174826,0.029109558136220657,0.01856789174580983,0.7343295234264714,0.651002825486778,-0.010416257523673374,0.191066574932325,1.0511670431288163,-1.260650358577766,-1.831045156658286,21.297000694274903,-32.94975112915039,16.267125720977784,206.21916015436088,none,false,false,false,,,,,,,,,1.6694629462481947,8.863989036862213,-2.6725961571872823,12.82837553024292,-49.16662727355957,68.91150299072265,0.008628799625690662,0.02485649429225162,0.016956985042448722,1.6694629462481947,8.863989036862213,-2.6725961571872823
75.0,-0.14582718295209549,-0.37365516837613255,0.37524267720679444,1.3148639985159332,9.350803954928528,-2.564050684956943,-0.04395643564973875,0.006443440655965616,0.0025008668579013633,0.7282638690050911,0.6592372270191417,-0.0171340980462036,0.18446217667238385,1.1227012323398216,-1.2672250002038246,-1.7787777208814435,22.73212589263916,-32.809126472473146,18.708375644683837,209.6345799550772,,,,,,,,,,,,,1.1687427014295084,8.976648952446732,-2.188386863207116,14.266125583648682,-49.02750198364258,71.3497528076172,-0.042512003987068586,0.0021931934447055406,8.69925811628599E-4,1.1687427014295084,8.976648952446732,-2.188386863207116
76.0,-0.2647299731057137,0.1805117570795119,-0.03273649147013202,1.5907655753711663,9.360536783048422,-2.319450307600569,0.03810111377480449,-0.08370346394321411,0.040419553687777554,0.7295509910583496,0.6558948868513107,-3.8594001031015066E-4,0.19197166964411735,1.0729591298103331,-1.2774169969558715,-1.7937665820121764,23.887500991821287,-32.99812644958496,20.262000846862794,211.51745566874234,none,false,false,false,,,,,,,,,1.3350668940508719,9.507374730440649,-2.341250612446577,15.41962558746338,-49.214626998901366,72.90675308227539,0.03954418150634311,-0.08795098835454866,0.03879814268099052,1.3350668940508719,9.507374730440649,-2.341250612446577
77.0,-0.20627212773451545,-0.07767735078346495,0.025669547071789995,1.5672742619233972,9.372444741866168,-2.279029428958893,0.007411385987802307,0.0379336630224739,-0.018826609754031248,0.7221353311164707,0.6599685999692655,0.01736107853888397,0.20424292309611453,1.0948123686453874,-1.29012063554689,-1.7287222123613544,26.459626083374022,-30.552001190185546,20.17462579727173,213.27495624063252,,,,,,,,,,,,,1.3606750617424648,9.29427981376648,-2.252875105436782,17.99025074005127,-46.76925170898438,72.81712799072265,0.008844925989719605,0.03368477700831424,-0.02043304454055753,1.3606750617424648,9.29427981376648,-2.252875105436782
78.0,0.05169065845530886,-0.1861531938804258,0.08245487636563802,1.4519652010190605,9.332723173764673,-2.4974791177428597,0.015439093341210894,-4.138476215302944E-4,0.07882254840075678,0.7214485843582908,0.6585542347171519,0.02056270289133386,0.2118330701152877,1.0892841184493338,-1.284420080704264,-1.7185799839473006,27.918376159667968,-31.777126388549803,14.862000589370728,204.80694445050068,none,false,false,false,,,,,,,,,1.503291156714653,9.146054414239261,-2.4145397248834666,19.450875701904298,-47.9943766784668,67.50637786865235,0.01687205795600426,-0.004669607228909929,0.07720894604355243,1.503291156714653,9.146054414239261,-2.4145397248834666
79.0,-0.4793830873089667,-0.32844484158985243,0.18371058467056345,1.3994966963730235,9.370590795384775,-2.4067416887472173,0.0666984996618703,0.07813987465575338,-0.03561662578955293,0.7218177743477396,0.657008711064216,0.02524738628786094,0.21438345622898328,1.0662775275730851,-1.2859500021037489,-1.7311008472253782,20.539875793457032,-29.476876068115235,10.36312536239624,199.3154897337177,,,,,,,,,,,,,0.9286853367207097,9.025101858026842,-2.2099809844010307,12.073125476837157,-45.69412666320801,63.00862770080566,0.06813537378795445,0.07389250017236919,-0.037241874746978286,0.9198505370923789,9.041697417155351,-2.222584261033352
80.0,-0.24797690072382736,0.06925446611119083,-0.13044241685789115,1.29795106743822,9.349363468661167,-2.5305059864969537,-0.014829779892940731,-0.04511078371319408,-0.011362622094833675,0.7160736829927652,0.662619967271786,0.018547574144622107,0.217023961467318,1.1399652403179963,-1.278328807047098,-1.663080862253019,19.785750694274903,-24.17175106048584,16.346625747680665,213.77804749153154,none,false,false,false,,,,,,,,,1.0497134117096072,9.418118755416115,-2.660437254603989,11.318625431060791,-40.38975158691406,68.9913779449463,-0.013395465654777545,-0.049362499960789494,-0.01297757544956517,1.0497134117096072,9.418118755416115,-2.660437254603989
81.0,-0.27105993017389934,0.1806091168420572,-0.0036780881494575856,1.404651841696571,9.375464084101658,-2.392399841663884,-0.02895668301141203,-0.07856014802922855,-0.04007784576422655,0.7156827479016548,0.667526524440915,0.021762960722816048,0.20199637275700474,1.1524081335348242,-1.3050360749749577,-1.668374100152184,24.333376007080076,-23.5443758392334,17.497500820159914,216.50067215517564,,,,,,,,,,,,,1.1333603407530224,9.555650486665613,-2.395619231696222,15.865875549316407,-39.76087677001953,70.14225280761718,-0.027505445377071305,-0.08281311894868418,-0.04169789631620492,1.1333603407530224,9.555650486665613,-2.395619231696222
82.0,0.03345416832715273,-0.6719064092636109,-0.232074393928051,1.157370017170906,9.440959329605102,-2.2189392435550688,-0.020468440183466025,-0.048604207583656994,0.04484678252996637,0.7080826532840728,0.6691798001527787,0.03138329975306988,0.22003717020153998,1.1891466975212097,-1.2958142507076262,-1.591202439069748,26.281876106262207,-27.38850112915039,20.319000816345216,216.3913225379912,none,false,false,false,,,,,,,,,1.1936257981169638,8.769496440887451,-2.4707733872208264,17.81437561035156,-43.60612655639648,72.96187759399415,-0.019030817258771104,-0.05285853856602813,0.04323217632839143,1.190532055888325,8.768571400642395,-2.450530616790056
83.0,-0.35544793515046147,-0.21533198787045538,0.35499993142872754,1.4618810923660503,9.332170935238109,-2.552657336580987,-0.008840841660737106,0.0537733913325511,-0.025034530291167815,0.716401702633091,0.6629066227697858,0.015037470602193008,0.2152859212136736,1.1481250968633914,-1.276133376009324,-1.66246206035801,26.630251083374024,-29.848876113891603,18.913125743865965,212.25345929351704,,,,,,,,,,,,,1.106151518156277,9.116347471872965,-2.1972236392983033,18.16087568283081,-46.06425163269043,71.55637832641601,-0.007390965924293983,0.04952450467292035,-0.02664913513725347,1.106151518156277,9.116347471872965,-2.1972236392983033
84.0,-0.37878490431178913,0.15222163811916173,0.055855396692410554,1.5021049486528528,9.414865739274733,-2.1732057970349152,0.0312596811483815,-0.002938723387927109,0.01827671517179731,0.7212014227810473,0.6596697055467284,0.0274038811094395,0.20797978267811312,1.0779340397013295,-1.299192439211477,-1.7259086358665239,25.421625938415527,-30.668626022338866,16.638750591278075,208.40102750057318,none,false,false,false,,,,,,,,,1.1230708552469122,9.566597943258758,-2.116858022342814,16.954875583648683,-46.88437667846679,69.28387771606445,0.032706127314846595,-0.007191787154285931,0.016665809974987424,1.1230708552469122,9.566597943258758,-2.116858022342814
85.0,-0.077849804387227,-0.09289936183531787,0.03381227190131504,1.4676538483769286,9.375202309851552,-2.3847040639204136,0.00411683148566154,-0.006384900697313323,-0.020495668141226664,0.7212990808720682,0.6590606061851277,0.026363637060949616,0.2103347734493368,1.0758032681895238,-1.2947652784048342,-1.7261051208365197,24.564751052856444,-29.739376106262206,17.900625915527343,211.01554841409134,,,,,,,,,,,,,1.3894794741097618,9.281832811879177,-2.3504412860481763,16.09537567138672,-45.95587646484375,70.54687805175782,0.005550371183285324,-0.010640592862953348,-0.022110271641044038,1.3894794741097618,9.281832811879177,-2.3504412860481763
86.0,0.0541086643380989,-0.10137208986400377,0.04136755606989459,1.53806475365516,9.398853292559632,-2.1648340968802424,0.052619362227143904,0.0807569853176235,0.049812744814427753,0.7291330872195783,0.6528642720515185,0.023110336458107623,0.20144640617441423,1.0062747367537848,-1.2948767088427402,-1.8130351080752836,24.33450096130371,-28.954501342773437,16.99537572860718,210.2438814592389,none,false,false,false,,,,,,,,,1.591757002885979,9.296969257959045,-2.122972375925372,15.867375679016114,-45.17137603759765,69.63900329589843,0.05406715665651741,0.07650661752011408,0.0481924024666203,1.591757002885979,9.296969257959045,-2.122972375925372
87.0,-0.32661965788871633,-0.44208645900967075,0.20302971583042367,1.5780950060077743,9.401019760206633,-2.167455494403839,0.0027661758758054642,-0.041743383035246356,0.02203504968087609,0.7273760420434615,0.6538725284969106,0.03045945103261985,0.20496334456929974,1.0085188594518923,-1.3015500786257725,-1.7954096700630935,24.63075107574463,-29.572501220703124,16.37737567901611,208.95911638827005,,,,,,,,,,,,,1.2512324094114935,8.958469559164609,-1.963926563769871,16.16362558364868,-45.788251419067386,69.0206282043457,0.004219362361575751,-0.04599105323409187,0.020407964785893757,1.2512324094114935,8.958469559164609,-1.963926563769871
88.0,-0.5942181524930193,0.043771658170347415,0.030481644814797475,1.6343625491740656,9.301768574060178,-2.519889968283036,-0.013956931309018395,-0.023285147761649423,-0.0364157177858276,0.7165439742452958,0.6563618831774768,0.03821094114990795,0.2319226281023493,1.0801182231482338,-1.2822970373957765,-1.6728601432314105,23.449875946044923,-30.11587615966797,19.048125762939453,212.23999718631578,none,false,false,false,,,,,,,,,1.0398632853346712,9.345066612842036,-2.488845712998334,14.982750701904298,-46.33387664794922,71.69400314331055,-0.012511139412843946,-0.0275394787716836,-0.03803712872345701,1.0398632853346712,9.345066612842036,-2.488845712998334
89.0,-0.30272518354698574,0.20592634951566705,0.008030703692411137,1.6782512251693424,9.342338741415798,-2.3827788652759967,0.041384804377551467,0.007357597898911028,-0.042354043938365636,0.7267536526859397,0.6497621878538982,0.02958832659970711,0.21936789169760035,1.0111567525580378,-1.277839722019611,-1.7725446106183647,24.04875099182129,-30.09150115966797,18.02325075149536,210.89047802539767,,,,,,,,,,,,,1.3752876865576105,9.547743967264006,-2.3742238789206684,15.58050064086914,-46.308751602172855,70.66612762451172,0.04483997440057816,0.007197647881094772,-0.04453502473246196,1.3752876865576105,9.547743967264006,-2.3742238789206684
90.0,-0.12964096639816666,0.0109523972268125,-0.03290368060055805,1.7760797750716115,9.332475194744035,-2.258412511909709,-0.07096225124700825,-0.05813663238475081,-0.006589109631310595,0.7262542791226331,0.6516499747248257,0.03471916689373115,0.21423272613216848,0.9943605047814986,-1.2941834973353965,-1.7896381593218036,24.274875946044922,-30.316501235961915,17.623875751495362,210.05657435268418,none,false,false,false,,,,,,,,,1.6460986046084003,9.342899004618326,-2.2908192303250816,15.805500640869141,-46.534126358032225,70.26675247192382,-0.06951918362612182,-0.06238415714648395,-0.008206435216424784,1.6460986046084003,9.342899004618326,-2.2908192303250816
91.0,-0.18681621820767327,-0.7719803940099065,0.03290221624371439,1.5458429213797693,9.464299598542771,-1.950886827884334,0.017087745092188317,-0.06210012209839096,0.039288602700895243,0.722392742586608,0.6553498323601071,0.04015710876129641,0.2154866914347847,1.0242492969673458,-1.3034620898784977,-1.7503497990051118,24.876375885009764,-29.383126029968263,19.872000694274902,214.02514158647696,,,,,,,,,,,,,1.358830770201022,8.69184694195738,-1.9174723706973513,16.407375526428222,-45.6003768157959,72.51525283813477,0.018524755157676397,-0.06635183806293736,0.037676348647687076,1.358830770201022,8.69184694195738,-1.9174723706973513
92.0,-0.4093162978602813,0.09820148370938726,0.181969060330873,1.4434679775845771,9.41693925857544,-2.2114091071428037,-0.035283044990299654,0.06882079244397654,0.01048811899479663,0.7165617709066353,0.6598287610446706,0.04126268599693682,0.22050582486040451,1.0806963776840883,-1.3031397824193918,-1.6849644043866325,26.977876243591307,-28.742251014709474,19.561125679016115,214.12525586786936,none,false,false,false,,,,,,,,,1.0326515115687953,9.491126873913933,-2.03289126999238,18.508125801086425,-44.959126510620116,72.20775314331054,-0.03383725225962329,0.06456237581401768,0.008870792197118891,1.0326515115687953,9.491126873913933,-2.03289126999238
93.0,-0.25596989777531604,0.19358674894170005,0.12383275423060623,1.5574151785066812,9.332465795007083,-2.465653484410579,0.004309681518112912,0.02317818854113712,-0.012318383235776541,0.7223780429363251,0.6549591320753098,0.022217329973354936,0.21898865059018136,1.0721401733160019,-1.2744779813289642,-1.722641770839691,25.108125915527342,-29.210251083374022,18.755625801086424,212.6597604932031,,,,,,,,,,,,,1.3011550132074567,9.52556338168607,-2.3413471499144443,16.639500675201415,-45.42487678527832,71.3992530822754,0.008274504338566325,0.014599505360099938,-0.013620667892628082,1.3011550132074567,9.52556338168607,-2.3413471499144443
94.0,0.10089059117451019,-0.1417517162055946,0.0430476819165051,1.333395554154527,9.404783099305396,-2.191340472768335,0.11432376267425347,-0.039408043972078234,0.12462128656870215,0.7191692450467277,0.6581994435366463,0.035336431243694295,0.21771967834701725,1.0777171768394171,-1.297068062950583,-1.700415758525624,25.809376192092895,-28.643251152038573,20.253000621795653,215.0260492754192,none,false,false,false,,,,,,,,,1.4338633056876122,9.26255783847734,-2.1478383289102245,17.34037573814392,-44.86050144195556,72.89812782287598,0.11577363836920203,-0.04365012366416873,0.12300940461936269,1.4338633056876122,9.26255783847734,-2.1478383289102245
95.0,-0.28597423046827314,-0.43254558254033326,0.2663503191573545,1.0280133566260339,9.57649603843689,-1.6712522011995317,-0.011769183081491748,0.09249257241458733,-0.05891398469557856,0.7044914364814758,0.6755252081155777,0.08569015005603432,0.19686933919787408,1.126671726703644,-1.407054455280304,-1.611054985523224,30.099001235961914,-30.86325122833252,16.91137580871582,208.77606320646564,,,,,,,,,,,,,0.7148777521261485,9.180656867452187,-1.397362940797195,21.632625732421875,-47.08050163269043,69.55650375366211,-0.01033564285365957,0.08824096551386289,-0.06052450430902219,0.7418265310302377,9.14345293045044,-1.404456069888547
96.0,-0.4412893799142729,-0.1548361836329979,-0.047834281553970834,1.8705288989871156,9.245244091632319,-2.496900939473919,-0.006639479871581097,-0.010621536324851879,-0.07480408489187755,0.7287405752668193,0.6378625216437321,0.03397029413677314,0.24389050009788252,0.9699658844985214,-1.2446434147217695,-1.7702967501154132,23.270250701904295,-34.2855012512207,19.655250606536864,209.68463793120216,none,false,false,false,,,,,,,,,1.4288530073621695,9.089907781750549,-2.5442736347881603,14.803125629425049,-50.50012725830078,72.30037796020508,-0.00520185658265606,-0.014871783591438047,-0.07642141017730873,1.4288530073621695,9.089907781750549,-2.5442736347881603
97.0,-0.3166121070337768,0.2671224547568524,-0.010723367222759983,1.687776239791719,9.272560818360583,-2.5856029810291705,-0.03993835753542097,8.209556268126357E-4,-0.01608075929221277,0.7260744205795893,0.6518826850570074,0.018437950452328614,0.21625511997407026,1.0467421931795555,-1.2698823756510669,-1.7573691500295507,24.22350082397461,-33.93712646484375,18.211500854492186,208.15581327967317,,,,,,,,,,,,,1.3708812558947425,9.539185127409377,-2.595865961007479,15.758625602722168,-50.15437744140625,70.85625335693359,-0.038498650492150704,-0.0034307607486113614,-0.017702450154020506,1.3708812558947425,9.539185127409377,-2.595865961007479
98.0,-0.1692810197470381,-0.12318483570261914,-0.163125161684173,1.9037685651405185,9.276853580100864,-2.436983674180274,-0.012049628947262126,-0.10021299495832017,-0.027909777334679177,0.7336235011325163,0.6470460611231187,0.008417490278553291,0.20478028395012313,1.0076804289630814,-1.2652817672374201,-1.8273967282444823,23.325751113891602,-33.27300140380859,15.327375564575195,204.6753005146373,none,false,false,false,,,,,,,,,1.734080981390149,9.153122499877332,-2.599670713584797,14.859000625610351,-49.49062713623047,67.97025321960449,-0.010598390796544527,-0.10446460463918082,-0.029512128147232062,1.734080981390149,9.153122499877332,-2.599670713584797
99.0,-0.2421232312180028,-0.5824896590507561,0.05591316729822048,1.7899193397843012,9.34635307765243,-2.245352923279942,0.0016998767889305657,0.015707353257811536,0.011820956229177467,0.7328886726115009,0.646135676025164,0.014205544551899011,0.21025448476914133,0.9950743476943215,-1.2654056053350466,-1.8237048505556466,22.156125717163086,-31.477126159667968,17.55900068283081,209.04275989368048,,,,,,,,,,,,,1.547420866953412,8.76332717838854,-2.189008019311298,13.689750556945802,-47.69437675476074,70.20187774658203,0.003136887498126895,0.011454289578193543,0.010228920887753951,1.547420866953412,8.76332717838854,-2.189008019311298
100.0,-0.35146787360894916,-0.08376997473704464,0.10015661144108676,1.799204355361415,9.349852814393884,-2.212652471720004,-0.0031529701047457092,0.0017221542536327154,0.021098761731703386,0.7356119915550831,0.6446991930989658,0.016493019536046274,0.20510344105023964,0.9680748681227366,-1.2728592122302336,-1.8550546473147822,23.500875968933105,-32.29125156402588,19.080375728607176,210.5152335341749,none,false,false,false,,,,,,,,,1.447335365867498,9.265593112683764,-2.112066285063823,15.033375663757324,-48.50812713623047,71.72437774658204,-0.0017085405168040554,-0.002530817145315727,0.01948279566085427,1.447335365867498,9.265593112683764,-2.112066285063823
101.0,-0.3037073750887066,0.25026674278080463,0.02142828341573477,1.9283526229858399,9.292475976943969,-2.345592724084854,0.0037710404779651378,-3.7438135206846907E-4,-0.007901485271678112,0.7353423690795898,0.6428837239742279,0.014068059926794376,0.21171275943517684,0.9754973465204239,-1.2601300132274629,-1.8412262606620788,24.141750946044922,-34.29937637329102,19.153875827789307,209.09333277214952,,,,,,,,,,,,,1.6331139380979065,9.552590082187464,-2.3205654580229065,15.67500057220459,-50.51700202941895,71.79712753295898,0.005212746371542758,-0.004627350639404342,-0.009518811829609446,1.624384576380253,9.542256474494934,-2.323630612534471
102.0,0.10585744753845182,-0.015630198167819603,-0.007565582079776362,1.7195191465172113,9.298543499965295,-2.46757090325449,0.024630197937056276,-0.03630544627915219,0.032964604445687024,0.7289922512045094,0.6450787946289661,0.026618735243876774,0.2258893239731882,0.9924793570649391,-1.263343543398614,-1.7855427522285312,23.40525077819824,-33.20025157928467,20.12625072479248,211.14353546698035,none,false,false,false,,,,,,,,,1.8250015543079843,9.282460708244175,-2.474672173168145,14.939250679016114,-49.41637741088867,72.77025329589844,0.026059653734474785,-0.04055569330138145,0.031349999594990866,1.8250015543079843,9.282460708244175,-2.474672173168145
103.0,-0.2173955901837124,-0.4254763398393251,0.202842477146573,1.9546721937632796,9.234262249257306,-2.492557934015104,0.05442977999793548,0.06422328309831667,0.02988872483975309,0.7353293423605437,0.6328283979160951,0.03544666334101469,0.23862542566096429,0.9054415951861013,-1.2469812832256355,-1.840660288782403,21.91387580871582,-31.805251426696778,20.952375602722167,213.31385997136402,,,,,,,,,,,,,1.7368887038809238,8.808284060789807,-2.289185752077858,13.447875595092773,-48.02287689208984,73.59600326538086,0.055873529236836764,0.05997965669752482,0.028258945847697118,1.7368887038809238,8.808284060789807,-2.289185752077858
104.0,-0.42744865882046085,-0.023446655106347275,0.08248947557077889,1.932084646879458,9.261056198793298,-2.4461742697977553,0.028118750267643846,0.019050490800473913,-0.0464682603191,0.7327738404273987,0.6386692810292337,0.032765215847129915,0.2310849400419815,0.9396900604752934,-1.2581454083031298,-1.8216993060766482,22.10362579345703,-30.28687614440918,21.631875648498536,215.46987330517885,none,false,false,false,,,,,,,,,1.504286827683887,9.23713869674533,-2.3631795206490684,13.633875579833985,-46.50225151062012,74.27625274658203,0.028585024888046307,0.0140508656795736,-0.04712710367736987,1.504286827683887,9.23713869674533,-2.3631795206490684
105.0,-0.3157553966431057,0.17874152465339968,-0.062731761578927,2.049703179621229,9.247007528940836,-2.3893771861113753,-0.01904306749324545,0.02552190575158537,-0.08146943052824919,0.7401964530056598,0.6360234156543133,0.016852950864453233,0.21543003881678863,0.9217141627096662,-1.2515321911550035,-1.885395835427677,24.7170011138916,-29.918626136779785,23.640750808715822,218.21775383031516,,,,,,,,,,,,,1.7335883201209499,9.425207769169527,-2.451616297914263,16.249875755310057,-46.134376525878906,76.28700302124024,-0.017597278049861144,0.021274381547723667,-0.08308267284018717,1.7335883201209499,9.425207769169527,-2.451616297914263
106.0,0.02291325732401692,-0.5770611021446415,-0.26600585693475043,1.9209359955079486,9.39310097458339,-1.9081435852711743,0.011761642371614775,-0.08072598106866959,0.00882426428827731,0.7389098594684412,0.6344527124178292,0.04055866337206104,0.2187767121756431,0.8548368758494311,-1.2764679712824303,-1.9134132862091064,28.630875930786132,-30.457876205444336,24.09525089263916,218.18929651803938,none,false,false,false,,,,,,,,,1.9434342453680415,8.81555979322679,-2.17366793028789,20.162625732421876,-46.67512680053711,76.73962814331054,0.01321348046664806,-0.08497635023120571,0.007198531039095684,1.9434342453680415,8.81555979322679,-2.17366793028789
107.0,-0.4277749425165501,0.12745890087521106,0.3494480377994478,2.368499851694294,9.420234231387868,-1.0917544873321758,0.16583044446617512,0.3728115066590876,-0.09961126245429168,0.7743704570274726,0.6196742864216075,0.0063383529401000805,0.11258129501605735,0.5044485164039275,-1.3014126875821281,-2.4667953580033544,31.362001457214355,-34.594126510620114,10.228125324249268,195.91989514647204,,,,,,,,,,,,,1.9403736194705261,9.547187202117023,-0.7420368008954706,22.894125900268556,-50.81025245666504,62.87175254821777,0.1672789577975648,0.36856534373992594,-0.10122586620307647,1.9403736194705261,9.547187202117023,-0.7420368008954706
108.0,2.035469879460807,-0.3842233678113927,1.5213978224166549,3.9224369809179023,8.292994315081303,-2.6486752056839444,0.7155486450749723,1.3706916632021175,-1.0839515901718508,-0.6231147800341691,-0.3130446932103374,0.2581189609695189,0.3171570500056951,0.5070032518688995,-1.0297030499666044,0.518310015744502,-1.7673751693964004,-30.578626432418822,-17.360250664651392,148.6297011092419,none,false,false,false,,,,,,,,,5.957394349693072,7.908237957718349,-1.1270822415146793,-10.237125400304794,-46.79662689208985,35.28262638092041,0.7170004903603637,1.3664399380339127,-1.0855719349986197,5.957394349693072,7.908237957718349,-1.1270822415146793
109.0,0.38988391588346155,-0.9161431403538468,-0.36971640268194617,8.739171953762279,3.832412086281122,0.8809831926562622,1.5957011086036368,0.5906673263491011,-0.24867215166145032,-0.19746916584828048,-0.08673839218453412,0.16659546986806625,0.914744411613427,-0.05901798049636258,-0.3802076316639489,0.42381087758158353,-45.85800155639649,24.215250977128743,-10.373625481128693,143.8119187316876,,,,,,,,,,,,,9.128588653078266,2.915822195930078,0.5110529685968205,-54.32700248718262,7.998000350967049,42.271501808166505,1.5971373709121552,0.5864170725448149,-0.2502867573466484,9.128588653078266,2.915822195930078,0.5110529685968205
110.0,-0.05080777378036426,0.004318308371763963,-0.6646350828500894,9.647114386925331,1.7218773915217473,0.06536438574011509,0.2415980719603025,-0.14675480786424416,0.01090480716755757,0.15853884701545423,0.02133061529065554,0.09124023123429371,0.9828810737683222,0.01321988649523029,-0.18719067940345177,-0.31861058794535124,-46.0928589957101,35.60625185285296,19.735715321132115,331.0058569915764,none,false,false,false,,,,,,,,,9.654868262154716,1.7495465108326502,-0.538360738328525,-54.559823172433035,19.39017949785505,72.38036019461495,0.2430576911339393,-0.15097499896700567,0.009307691684136024,9.595938829275278,1.7256693106431227,-0.5987769502859849
